Hour,Load (kW)
1,295.858
2,299.385
3,303.155
4,304.067
5,319.019
6,317.358
7,362.262
8,364.899
9,398.759
10,394.702
11,398.166
12,399.737
13,397.489
14,393.483
15,394.605
16,394.888
17,383.201
18,361.753
19,342.832
20,340.133
21,321.454
22,319.48
23,303.584
24,303.782
25,306.104
26,306.512
27,305.739
28,304.429
29,370.234
30,378.142
31,511.652
32,582.335
33,595.037
34,615.612
35,628.089
36,643.392
37,633.345
38,649.39
39,649.337
40,650.045
41,648.305
42,652.309
43,504.729
44,501.713
45,419.618
46,398.158
47,340.564
48,338.842
49,336.09
50,332.584
51,326.996
52,325.819
53,391.356
54,400.47
55,531.234
56,604.614
57,615.554
58,631.658
59,632.741
60,626.963
61,606.273
62,623.787
63,625.201
64,626.147
65,629.477
66,634.049
67,480.113
68,476.019
69,394.675
70,377.347
71,321.931
72,321.392
73,314.913
74,314.805
75,314.936
76,315.307
77,381.041
78,381.892
79,519.598
80,593.03
81,605.854
82,622.575
83,631.312
84,641.384
85,631.1
86,651.422
87,661.942
88,669.209
89,671.771
90,679.776
91,526.665
92,521.332
93,438.004
94,419.402
95,366.12
96,366.428
97,360.267
98,358.932
99,358.187
100,353.467
101,412.492
102,420.427
103,560.373
104,634.683
105,646.691
106,664.956
107,671.91
108,668.127
109,641.299
110,654.338
111,654.717
112,653.299
113,637.535
114,635.593
115,479.772
116,475.82
117,395.146
118,376.548
119,321.85
120,321.939
121,316.031
122,315.905
123,315.723
124,317.083
125,384.612
126,387.093
127,524.82
128,598.257
129,611.037
130,625.433
131,627.355
132,628.759
133,609.094
134,626.225
135,627.28
136,627.965
137,631.814
138,636.95
139,481.661
140,477.867
141,396.832
142,378.016
143,324.045
144,324.514
145,319.726
146,323.055
147,324.177
148,323.772
149,338.183
150,337.091
151,382.193
152,448.097
153,444.568
154,501.295
155,504.546
156,504.838
157,489.408
158,486.179
159,486.197
160,442.785
161,446.106
162,430.385
163,405.285
164,401.677
165,336.658
166,336.337
167,321.32
168,321.744
169,307.439
170,307.446
171,306.651
172,306.76
173,323.127
174,323.657
175,370.574
176,371.911
177,405.579
178,401.837
179,405.235
180,405.534
181,404.703
182,401.034
183,401.011
184,400.844
185,388.378
186,367.885
187,346.837
188,343.141
189,328.803
190,329.067
191,314.159
192,314.619
193,316.675
194,316.685
195,317.865
196,319.788
197,384.474
198,384.451
199,520.806
200,594.436
201,606.86
202,621.835
203,624.907
204,624.845
205,605.019
206,622.575
207,624.98
208,631.94
209,632.267
210,634.311
211,489.21
212,494.315
213,420.968
214,407.96
215,355.431
216,355.364
217,343.697
218,337.818
219,333.678
220,331.913
221,399.992
222,407.106
223,541.133
224,613.009
225,625.137
226,646.247
227,661.318
228,674.597
229,657.561
230,672.373
231,674.127
232,675.474
233,679.066
234,683.836
235,530.034
236,519.709
237,425.119
238,395.717
239,336.682
240,339.143
241,335.402
242,331.739
243,328.253
244,324.593
245,385.361
246,390.439
247,526.695
248,600.264
249,617.311
250,647.974
251,669.878
252,674.968
253,659.019
254,678.282
255,678.657
256,677.189
257,679.51
258,682.994
259,528.396
260,514.553
261,418.274
262,388.295
263,331.104
264,327.692
265,320.439
266,320.037
267,316.815
268,314.739
269,379.153
270,390.33
271,533.885
272,611.332
273,624.472
274,640.008
275,642.694
276,642.172
277,621.136
278,637.546
279,635.849
280,635.034
281,638.471
282,643.793
283,490.608
284,487.383
285,404.511
286,392.451
287,341.826
288,333.353
289,327.026
290,325.167
291,323.184
292,323.426
293,387.429
294,390.385
295,527.61
296,604.481
297,615.453
298,626.562
299,629.452
300,635.179
301,617.086
302,631.306
303,632.218
304,633.141
305,635.43
306,637.463
307,478.733
308,470.333
309,387.8
310,368.493
311,313.613
312,313.772
313,308.243
314,308.262
315,308.226
316,308.188
317,323.469
318,323.955
319,368.247
320,437.163
321,432.64
322,493.646
323,503.769
324,513.776
325,510.65
326,516.656
327,525.084
328,479.938
329,481.362
330,458.473
331,429.017
332,419.665
333,351.792
334,345.963
335,326.673
336,325.244
337,310.05
338,308.804
339,306.354
340,305.421
341,319.369
342,317.753
343,360.318
344,359.82
345,396.337
346,398.583
347,413.195
348,429.278
349,446.45
350,453.793
351,456.764
352,459.605
353,448.239
354,424.434
355,402.933
356,382.335
357,360.577
358,354.093
359,333.155
360,333.868
361,324.91
362,322.072
363,321.051
364,319.936
365,332.417
366,334.946
367,376.924
368,373.377
369,414.711
370,418.718
371,430.705
372,445.12
373,447.611
374,445.037
375,447.685
376,446.376
377,429.902
378,388.017
379,353.304
380,343.9
381,328.766
382,326.01
383,308.666
384,310.517
385,314.621
386,315.12
387,315.189
388,317.293
389,385.718
390,398.112
391,540.455
392,619.575
393,633.277
394,643.432
395,642.364
396,638.272
397,614.122
398,625.759
399,625.544
400,626.675
401,632.119
402,640.157
403,499.642
404,499.079
405,417.852
406,398.94
407,339.841
408,334.566
409,327.327
410,325.967
411,326.547
412,326.643
413,391.093
414,397.867
415,534.618
416,608.732
417,622.256
418,638.359
419,642.108
420,639.433
421,615.893
422,633.315
423,633.555
424,629.819
425,639.494
426,639.251
427,492.357
428,495.222
429,412.787
430,394.05
431,340.991
432,342.867
433,335.531
434,335.801
435,334.8
436,329.452
437,388.982
438,398.384
439,536.606
440,609.219
441,620.722
442,630.808
443,627.65
444,626.316
445,607.761
446,625.724
447,628.061
448,631.951
449,635.374
450,636.08
451,482.349
452,478.343
453,396.942
454,377.468
455,322.737
456,322.972
457,316.7
458,316.382
459,316.266
460,316.42
461,383.366
462,385.344
463,523.436
464,606.913
465,634.013
466,651.517
467,656.726
468,663.345
469,649.679
470,669.151
471,664.713
472,660.525
473,664.987
474,671.99
475,521.871
476,517.193
477,433.306
478,410.393
479,356.987
480,356.454
481,344.961
482,336.615
483,332.657
484,330.612
485,337.499
486,334.449
487,380.848
488,456.275
489,463.219
490,535.641
491,542.997
492,547.778
493,540.035
494,540.74
495,540.983
496,496.454
497,501.316
498,481.712
499,451.408
500,448.079
501,386.399
502,385.131
503,372.89
504,374.901
505,359.623
506,359.261
507,357.181
508,355.262
509,366.07
510,360.281
511,404.567
512,398.934
513,435.88
514,437.052
515,446.419
516,448.548
517,451.073
518,453.28
519,458.795
520,459.888
521,446.076
522,420.855
523,404.051
524,395.804
525,377.355
526,377.128
527,358.136
528,355.752
529,357.414
530,351.084
531,349.422
532,347.535
533,408.275
534,413.799
535,551.247
536,620.96
537,636.056
538,654.371
539,650.142
540,630.62
541,614.41
542,637.782
543,639.985
544,641.477
545,646.548
546,648.9
547,492.594
548,483.935
549,398.706
550,378.123
551,323.771
552,324.031
553,317.29
554,316.91
555,316.989
556,317.455
557,384.855
558,386.095
559,524.238
560,597.758
561,618.589
562,640.21
563,645.737
564,647.012
565,629.922
566,652.38
567,657.813
568,663.002
569,670.708
570,677.392
571,526.7
572,522.988
573,441.778
574,423.051
575,369.332
576,370.617
577,365.754
578,362.699
579,356.475
580,351.085
581,402.91
582,394.576
583,540.625
584,617.933
585,636.749
586,657.848
587,663.968
588,667.027
589,653.107
590,669.842
591,669.919
592,673.755
593,680.708
594,681.351
595,526.806
596,522.009
597,438.919
598,420.65
599,368.348
600,368.321
601,359.946
602,355.031
603,352.884
604,351.605
605,418.8
606,423.227
607,560.297
608,631.561
609,647.874
610,666.033
611,670.722
612,670.786
613,650.529
614,668.775
615,672.148
616,673.524
617,678.099
618,676.526
619,523.84
620,522.638
621,436.053
622,412.592
623,358.341
624,358.631
625,355.152
626,356.457
627,355.984
628,354.052
629,419.256
630,419.39
631,555.356
632,624.277
633,638.183
634,654.441
635,658.899
636,662.775
637,644.746
638,663.568
639,665.07
640,670.346
641,672.997
642,669.592
643,515.793
644,510.409
645,425.945
646,405.318
647,353.636
648,354.958
649,348.574
650,347.092
651,343.734
652,340.953
653,360.464
654,371.825
655,420.666
656,486.894
657,485.95
658,546.443
659,553.139
660,556.446
661,544.348
662,543.334
663,544.135
664,499.96
665,504.508
666,485.262
667,464.462
668,460.105
669,383.9
670,372.545
671,349.345
672,344.992
673,327.358
674,322.538
675,320.982
676,323.355
677,337.888
678,335.33
679,378.738
680,376.759
681,416.485
682,422.815
683,444.659
684,461.892
685,463.247
686,460.249
687,461.253
688,461.441
689,447.283
690,419.764
691,398.6
692,393.365
693,379.569
694,380.761
695,363.66
696,348.798
697,346.448
698,342.717
699,332.565
700,334.332
701,399.678
702,404.699
703,541.418
704,609.168
705,621.426
706,658.056
707,672.479
708,676.966
709,658.355
710,675.977
711,677.284
712,679.964
713,681.678
714,677.402
715,529.299
716,526.242
717,437.802
718,418.808
719,362.465
720,366.468
721,359.823
722,357.118
723,358.122
724,357.332
725,421.846
726,421.949
727,559.37
728,630.428
729,643.34
730,647.576
731,643.548
732,632.673
733,607.165
734,624.024
735,624.211
736,624.215
737,627.595
738,627.794
739,479.14
740,481.414
741,409.314
742,400.419
743,356.325
744,359.615
745,352.757
746,346.576
747,340.577
748,334.22
749,393.501
750,394.423
751,526.045
752,594.77
753,611.903
754,635.431
755,647.539
756,659.538
757,651.999
758,680.906
759,687.117
760,688.32
761,692.234
762,692.19
763,535.95
764,521.475
765,435.502
766,409.429
767,352.791
768,350.2
769,340.084
770,339.038
771,337.136
772,335.035
773,398.288
774,402.71
775,539.128
776,610.709
777,629.198
778,653.716
779,672.979
780,689.771
781,670.595
782,684.652
783,685.507
784,689.206
785,694.212
786,693.943
787,544.041
788,538.831
789,456.925
790,437.095
791,381.432
792,381.396
793,374.993
794,374.761
795,373.467
796,372.042
797,437.426
798,438.046
799,575.639
800,646.079
801,661.419
802,678.172
803,681.821
804,681.544
805,659.023
806,673.492
807,672.39
808,672.115
809,676.016
810,671.939
811,516.002
812,500.985
813,414.319
814,391.082
815,331.368
816,327.718
817,322.115
818,319.189
819,316.367
820,315.858
821,330.441
822,330.503
823,375.689
824,450.139
825,453.15
826,513.49
827,517.235
828,517.541
829,504.406
830,503.875
831,504.569
832,454.056
833,455.424
834,436.651
835,421.083
836,416.946
837,353.133
838,354.991
839,340.44
840,342.26
841,328.639
842,327.196
843,322.357
844,311.441
845,322.253
846,322.275
847,368.954
848,369.907
849,410.812
850,404.237
851,409.149
852,414.625
853,411.718
854,410.251
855,414.815
856,418.707
857,412.757
858,392.249
859,382.85
860,379.354
861,365.987
862,364.996
863,348.647
864,350.311
865,354.747
866,357.003
867,355.822
868,353.985
869,415.946
870,417.292
871,553.858
872,623.895
873,643.034
874,663.108
875,666.67
876,668.319
877,653.268
878,672.913
879,676.723
880,681.055
881,679.374
882,651.733
883,515.38
884,527.254
885,444.72
886,424.788
887,367.791
888,365.676
889,358.946
890,359.791
891,356.912
892,354.173
893,415.028
894,400.659
895,527.446
896,601.345
897,612.823
898,624.988
899,626.381
900,626.77
901,609.209
902,627.654
903,626.314
904,625.929
905,629.476
906,630.895
907,481.643
908,476.768
909,395.781
910,376.855
911,323.543
912,321.689
913,314.79
914,315.215
915,314.743
916,314.61
917,380.118
918,381.495
919,519.991
920,591.885
921,608.953
922,626.979
923,629.294
924,634.075
925,633.401
926,661.2
927,664.377
928,667.007
929,666.624
930,666.889
931,505.99
932,495.297
933,411.347
934,390.454
935,335.993
936,334
937,324.237
938,322.215
939,321.119
940,319.285
941,383.612
942,387.008
943,519.181
944,587.709
945,604.508
946,625.345
947,636.926
948,646.514
949,633.007
950,658.855
951,666.25
952,670.941
953,676.444
954,671.508
955,505.314
956,490.631
957,402.989
958,379.015
959,322.588
960,320.783
961,313.547
962,311.972
963,310.502
964,309.57
965,374.895
966,378.206
967,512.165
968,581.004
969,598.538
970,622.972
971,639.222
972,655.961
973,651.935
974,684.349
975,687.2
976,687.418
977,690.284
978,687.674
979,529.267
980,518.381
981,430.191
982,406.561
983,350.663
984,346.047
985,337.006
986,332.804
987,329.354
988,327.044
989,338.199
990,338.031
991,382.789
992,450.919
993,455.324
994,532.414
995,553.495
996,556.937
997,546.516
998,546.483
999,546.562
1000,499.443
1001,501.817
1002,473.994
1003,454.606
1004,453.783
1005,385.914
1006,381.917
1007,363.226
1008,359.572
1009,346.36
1010,351.073
1011,348.925
1012,340.831
1013,347.295
1014,339.512
1015,378.674
1016,375.729
1017,413.541
1018,413.869
1019,417.106
1020,410.089
1021,406.927
1022,402.453
1023,402.636
1024,402.313
1025,390.138
1026,364.705
1027,348.832
1028,345.149
1029,329.857
1030,329.759
1031,313.778
1032,314.116
1033,326.657
1034,344.556
1035,334.88
1036,321.585
1037,387.066
1038,397.79
1039,535.762
1040,604.745
1041,618.015
1042,630.574
1043,633.861
1044,633.328
1045,612.153
1046,630.202
1047,630.643
1048,631.26
1049,635.141
1050,635.668
1051,485.016
1052,478.209
1053,396.5
1054,378.404
1055,325.959
1056,323.51
1057,315.761
1058,314.952
1059,312.883
1060,310.834
1061,375.282
1062,378.952
1063,513.076
1064,579.928
1065,598.979
1066,620.305
1067,634.702
1068,648.283
1069,643.96
1070,674.724
1071,677.317
1072,679.488
1073,684.519
1074,685.259
1075,534.811
1076,526.3
1077,431.999
1078,401.479
1079,338.862
1080,338.77
1081,334.992
1082,336.449
1083,334.047
1084,331.354
1085,397.68
1086,407.698
1087,542.594
1088,612.723
1089,642.065
1090,665.79
1091,670.617
1092,665.458
1093,636.202
1094,641.879
1095,632.918
1096,629.833
1097,631.243
1098,629.705
1099,477.632
1100,476.441
1101,395.09
1102,375.589
1103,321.996
1104,324.149
1105,317.833
1106,319.983
1107,320.993
1108,320.842
1109,386.759
1110,388.764
1111,526.142
1112,600.984
1113,614.335
1114,629.99
1115,641.062
1116,649.02
1117,622.605
1118,631.587
1119,630.164
1120,632.805
1121,638.238
1122,638.208
1123,482.26
1124,480.871
1125,400.302
1126,380.435
1127,327.821
1128,328.758
1129,322.168
1130,321.027
1131,321.364
1132,322.171
1133,387.664
1134,387.166
1135,522.776
1136,590.633
1137,608.897
1138,625.322
1139,631.867
1140,642.763
1141,627.807
1142,646.781
1143,648.678
1144,647.268
1145,649.514
1146,648.374
1147,487.048
1148,479.268
1149,396.684
1150,377.15
1151,322.268
1152,322.547
1153,317.009
1154,317.389
1155,317.299
1156,316.549
1157,331.331
1158,332.394
1159,378.203
1160,439.412
1161,442.961
1162,502.538
1163,514.213
1164,523.789
1165,512.122
1166,510.748
1167,512.715
1168,468.997
1169,471.251
1170,447.065
1171,418.759
1172,410.281
1173,340.124
1174,339.131
1175,323.607
1176,324.896
1177,311.215
1178,312.072
1179,313.485
1180,312.821
1181,326.043
1182,327.395
1183,372.52
1184,367.974
1185,404.53
1186,401.649
1187,406.661
1188,412.622
1189,418.331
1190,418.01
1191,419.839
1192,420.972
1193,407.681
1194,378.948
1195,357.017
1196,353.146
1197,336.159
1198,335.033
1199,318.307
1200,319.169
1201,315.305
1202,316.839
1203,315.764
1204,315.662
1205,332.064
1206,330.555
1207,375.168
1208,370.977
1209,410.616
1210,410.22
1211,421.566
1212,431.214
1213,435.596
1214,434.167
1215,436.316
1216,437.096
1217,421.871
1218,390.831
1219,367.737
1220,364.201
1221,350.364
1222,349.174
1223,330.931
1224,333.245
1225,337.846
1226,339.255
1227,339.89
1228,339.878
1229,407.634
1230,409.377
1231,546.465
1232,613.465
1233,630.781
1234,648.913
1235,655.279
1236,656.424
1237,637.224
1238,656.292
1239,659.747
1240,659.768
1241,661.42
1242,656.284
1243,500.379
1244,494.647
1245,411.66
1246,392.437
1247,336.565
1248,337.974
1249,335.628
1250,340.199
1251,345.31
1252,349.646
1253,418.182
1254,421.834
1255,563.346
1256,629.345
1257,634.489
1258,641.897
1259,646.806
1260,648.307
1261,631.013
1262,643.867
1263,640.662
1264,641.518
1265,653.292
1266,660.865
1267,506.443
1268,499.883
1269,423.301
1270,411.31
1271,357.606
1272,358.001
1273,353.982
1274,357.165
1275,359.335
1276,357.77
1277,421.394
1278,421.141
1279,557.488
1280,625.788
1281,643.232
1282,662.054
1283,665.725
1284,662.566
1285,642.692
1286,659.003
1287,658.732
1288,659.49
1289,664.852
1290,666.816
1291,515.07
1292,511.867
1293,429.115
1294,411.637
1295,361.508
1296,360.783
1297,353.588
1298,353.457
1299,343.996
1300,337.441
1301,401.887
1302,405.738
1303,542.13
1304,611.355
1305,638.031
1306,659.638
1307,663.947
1308,663.419
1309,646.98
1310,665.971
1311,666.8
1312,666.309
1313,670.378
1314,670.6
1315,512.064
1316,507.292
1317,428.185
1318,410.553
1319,358.276
1320,359.28
1321,351.772
1322,351.003
1323,350.606
1324,350.331
1325,365.934
1326,365.649
1327,412.059
1328,474.912
1329,466.157
1330,519.437
1331,527.779
1332,535.908
1333,526.078
1334,524.378
1335,530.149
1336,487.916
1337,487.169
1338,452.652
1339,431.453
1340,425.722
1341,356.513
1342,353.941
1343,337.797
1344,339.81
1345,328.289
1346,329.165
1347,331.265
1348,330.417
1349,341.985
1350,334.716
1351,372.244
1352,362.826
1353,404.277
1354,400.794
1355,404.625
1356,405.667
1357,405.486
1358,401.988
1359,402.094
1360,402.336
1361,390.481
1362,365.513
1363,350.552
1364,362.113
1365,356.543
1366,358.718
1367,342.143
1368,341.409
1369,343.157
1370,343.061
1371,344.114
1372,344.819
1373,407.25
1374,406.023
1375,544.433
1376,607.784
1377,623.22
1378,634.317
1379,630.574
1380,638.122
1381,624.161
1382,642.79
1383,653.035
1384,667.216
1385,674.518
1386,673.615
1387,521.438
1388,518.623
1389,439.211
1390,421.164
1391,365.938
1392,366.522
1393,357.82
1394,360.045
1395,362.318
1396,361.007
1397,424.371
1398,419.462
1399,553.503
1400,625.865
1401,647.403
1402,663.033
1403,672.171
1404,676.143
1405,658.117
1406,655.109
1407,647.075
1408,651.135
1409,661.431
1410,664.113
1411,505.184
1412,496.109
1413,405.821
1414,381.031
1415,325.468
1416,323.541
1417,315.891
1418,315.47
1419,315.231
1420,315.242
1421,380.975
1422,382.231
1423,520.744
1424,587.417
1425,607.871
1426,624.647
1427,630.632
1428,631.512
1429,612.67
1430,631.354
1431,632.281
1432,632.606
1433,637.25
1434,638.469
1435,489.966
1436,490.705
1437,409.091
1438,390.587
1439,336.807
1440,339.006
1441,335.93
1442,336.904
1443,338.243
1444,340.954
1445,405.544
1446,408.016
1447,547.212
1448,613.154
1449,633.411
1450,651.906
1451,657.555
1452,660.15
1453,638.511
1454,657.533
1455,661.334
1456,663.748
1457,666.949
1458,669.587
1459,513.259
1460,511.431
1461,428.513
1462,409.293
1463,356.877
1464,357.849
1465,351.441
1466,351.307
1467,353.857
1468,355.575
1469,418.89
1470,416.516
1471,555.29
1472,622.441
1473,645.77
1474,659.46
1475,661.534
1476,669.732
1477,654.273
1478,676.035
1479,685.881
1480,689.338
1481,685.937
1482,682.583
1483,522.407
1484,518.522
1485,432.258
1486,409.226
1487,353.968
1488,361.693
1489,364.668
1490,367.818
1491,368.92
1492,367.739
1493,376.361
1494,373.919
1495,418.336
1496,479.669
1497,488.749
1498,553.503
1499,561.734
1500,564.256
1501,550.657
1502,544.021
1503,543.765
1504,499.306
1505,502.817
1506,480.824
1507,454.27
1508,455.058
1509,391.731
1510,391.229
1511,374.931
1512,375.59
1513,362.434
1514,362.865
1515,362.933
1516,362.172
1517,373.727
1518,369.048
1519,410.795
1520,403.975
1521,447.679
1522,447.757
1523,452.327
1524,451.576
1525,450.241
1526,446.981
1527,447.529
1528,447.035
1529,433.311
1530,408.491
1531,386.713
1532,386.037
1533,369.939
1534,367.736
1535,351.717
1536,351.488
1537,353.133
1538,352.827
1539,352.459
1540,352.512
1541,415.985
1542,415.023
1543,551.558
1544,617.798
1545,640.946
1546,661.447
1547,668.847
1548,672.363
1549,650.873
1550,662.703
1551,661.838
1552,661.317
1553,664.144
1554,663.776
1555,508.75
1556,509.031
1557,425.526
1558,404.964
1559,352.55
1560,354.171
1561,349.387
1562,349.885
1563,352.237
1564,355.555
1565,424.071
1566,428.986
1567,565.825
1568,630.108
1569,649.776
1570,664.812
1571,672.092
1572,668.942
1573,640.294
1574,652.824
1575,650.114
1576,650.133
1577,652.035
1578,651.532
1579,501.303
1580,504.872
1581,421.332
1582,395.41
1583,331.404
1584,324.089
1585,317.206
1586,317.518
1587,318.003
1588,318.158
1589,383.624
1590,384.839
1591,523.622
1592,590.389
1593,612.21
1594,631.031
1595,636.842
1596,639.774
1597,621.186
1598,639.907
1599,643.24
1600,645.917
1601,650.617
1602,651.89
1603,495.761
1604,496.078
1605,414.867
1606,394.399
1607,336.297
1608,334.852
1609,326.399
1610,321.768
1611,318.405
1612,317.874
1613,383.301
1614,384.676
1615,523.503
1616,590.14
1617,610.5
1618,627.052
1619,631.776
1620,633.525
1621,614.759
1622,635.111
1623,637.626
1624,634.155
1625,634.9
1626,634.463
1627,477.206
1628,478.294
1629,396.939
1630,377.475
1631,322.737
1632,322.904
1633,316.643
1634,317.756
1635,318.696
1636,320.635
1637,386.899
1638,390.938
1639,529.783
1640,600.91
1641,624.417
1642,641.626
1643,647.409
1644,644.3
1645,621.506
1646,636.813
1647,635.688
1648,635.621
1649,641.087
1650,642.583
1651,488.189
1652,482.007
1653,398.551
1654,384.067
1655,332.992
1656,334.959
1657,332.25
1658,335.144
1659,342.762
1660,345.962
1661,362.5
1662,365.581
1663,413.889
1664,480.165
1665,485.565
1666,545.834
1667,552.271
1668,553.245
1669,537.502
1670,533.539
1671,533.723
1672,489.399
1673,493.352
1674,471.504
1675,447.366
1676,447.313
1677,379.978
1678,378.092
1679,355.112
1680,334.471
1681,307.018
1682,304.595
1683,303.435
1684,318.288
1685,320.58
1686,369.508
1687,370.563
1688,405.556
1689,407.23
1690,417.618
1691,428.789
1692,430.817
1693,428.111
1694,428.778
1695,427.918
1696,418.268
1697,396.489
1698,371.394
1699,373.19
1700,363.627
1701,361.974
1702,347.506
1703,348.592
1704,343.805
1705,352.035
1706,348.833
1707,342.719
1708,400.508
1709,409.525
1710,546.39
1711,618.061
1712,632.483
1713,655.366
1714,664.713
1715,670.554
1716,654.266
1717,672.113
1718,672.462
1719,671.768
1720,673.77
1721,672.928
1722,513.89
1723,514.784
1724,436.807
1725,416.528
1726,362.23
1727,362.424
1728,356.122
1729,356.005
1730,355.169
1731,355.018
1732,420.089
1733,422.241
1734,560.857
1735,632.303
1736,646.36
1737,667.347
1738,677.71
1739,681.608
1740,656.638
1741,669.367
1742,667.028
1743,670.399
1744,674.663
1745,673.302
1746,512.354
1747,513.262
1748,435.842
1749,414.5
1750,357.1
1751,355.279
1752,348.766
1753,345.261
1754,344.621
1755,345.207
1756,408.781
1757,407.916
1758,542.654
1759,612.165
1760,618.564
1761,626.604
1762,628.593
1763,630.713
1764,613.006
1765,632.796
1766,638.441
1767,643.257
1768,647.194
1769,647.532
1770,484.933
1771,481.245
1772,401.317
1773,380.555
1774,326.009
1775,327.19
1776,320.482
1777,319.99
1778,320.034
1779,320.023
1780,383.489
1781,384.284
1782,523.585
1783,597.972
1784,610.947
1785,630.726
1786,641.755
1787,651.499
1788,638.023
1789,657.524
1790,659.182
1791,659.427
1792,664.448
1793,667.59
1794,501.434
1795,499.415
1796,421.205
1797,400.605
1798,343.86
1799,342.878
1800,336.63
1801,328.589
1802,322.361
1803,325.725
1804,394.508
1805,398.553
1806,540.869
1807,616.504
1808,630.731
1809,646.169
1810,649.175
1811,651.319
1812,630.56
1813,644.512
1814,645.522
1815,644.27
1816,644.964
1817,642.597
1818,481.558
1819,484.391
1820,408.28
1821,392.339
1822,342.608
1823,346.204
1824,342.869
1825,343.701
1826,343.548
1827,343.513
1828,359.912
1829,361.015
1830,398.728
1831,467.529
1832,458.178
1833,505.442
1834,507.166
1835,506.46
1836,488.996
1837,484.879
1838,484.989
1839,440.928
1840,444.731
1841,424.888
1842,395.676
1843,397.769
1844,338.305
1845,338.548
1846,322.65
1847,322.572
1848,316.021
1849,307.519
1850,307.151
1851,306.862
1852,322.595
1853,322.452
1854,368.742
1855,369.676
1856,403.137
1857,399.527
1858,403.355
1859,404.366
1860,404.466
1861,401.492
1862,402.055
1863,402.447
1864,390.481
1865,365.522
1866,340.062
1867,341.662
1868,331.139
1869,330.431
1870,314.091
1871,314.404
1872,308.399
1873,316.235
1874,315.838
1875,315.783
1876,381.153
1877,382.048
1878,519.778
1879,592.953
1880,605.509
1881,622.282
1882,626.845
1883,628.321
1884,609.545
1885,630.889
1886,635.499
1887,638.561
1888,644.152
1889,646.548
1890,486.451
1891,485.061
1892,405.175
1893,381.038
1894,323.644
1895,323.633
1896,317.256
1897,316.96
1898,316.639
1899,316.114
1900,382.446
1901,383.791
1902,523.748
1903,599.608
1904,617.37
1905,640.732
1906,650.902
1907,653.542
1908,642.248
1909,668.861
1910,678.859
1911,687.943
1912,688.672
1913,687.717
1914,526.219
1915,520.64
1916,442.489
1917,416.301
1918,358.05
1919,356.614
1920,348.081
1921,348.751
1922,347.746
1923,342.382
1924,409.57
1925,412.208
1926,548.078
1927,619.058
1928,640.461
1929,659.495
1930,669.112
1931,678.811
1932,661.914
1933,680.549
1934,685.108
1935,685.862
1936,694.061
1937,701.775
1938,534.371
1939,523.042
1940,444.029
1941,423.029
1942,370.919
1943,373.015
1944,365.62
1945,364.648
1946,363.506
1947,359.553
1948,421.035
1949,421.498
1950,555.657
1951,622.137
1952,631.894
1953,639.225
1954,632.936
1955,631.822
1956,614.718
1957,638.875
1958,645.311
1959,649.907
1960,658.729
1961,665.127
1962,499.662
1963,496.935
1964,417.723
1965,393.935
1966,337.788
1967,334.503
1968,325.66
1969,324.651
1970,321.687
1971,317.896
1972,384.008
1973,384.789
1974,523.564
1975,594.711
1976,610.064
1977,626.35
1978,629.99
1979,630.765
1980,611.044
1981,627.998
1982,629.179
1983,633.038
1984,640.221
1985,643.25
1986,482.841
1987,482.217
1988,409.906
1989,391.373
1990,337.465
1991,338.711
1992,333.985
1993,334.4
1994,334.461
1995,334.022
1996,349.147
1997,348.861
1998,395.143
1999,460.474
2000,459.346
2001,515.414
2002,520.847
2003,525.053
2004,515.81
2005,520.197
2006,525.335
2007,482.919
2008,485.794
2009,460.427
2010,442.988
2011,440.061
2012,374.155
2013,367.195
2014,345.87
2015,326.805
2016,324.057
2017,324.336
2018,323.947
2019,319.053
2020,329.504
2021,326.177
2022,371.675
2023,369.751
2024,406.242
2025,403.32
2026,412.329
2027,426.579
2028,437.74
2029,440.035
2030,445.872
2031,446.21
2032,432.951
2033,399.785
2034,370.858
2035,369.061
2036,350.301
2037,344.744
2038,327.584
2039,323.755
2040,316.247
2041,321.817
2042,320.361
2043,319.186
2044,383.458
2045,384.39
2046,522.865
2047,598.77
2048,620.838
2049,641.081
2050,649.144
2051,655.52
2052,641.997
2053,666.871
2054,672.494
2055,674.486
2056,674.759
2057,669.721
2058,509.651
2059,510.233
2060,435.554
2061,414.061
2062,357.846
2063,357.68
2064,348.21
2065,344.068
2066,343.246
2067,340.241
2068,405.62
2069,408.247
2070,546.956
2071,618.335
2072,635.18
2073,653.73
2074,659.165
2075,664.318
2076,648.438
2077,662.139
2078,658.862
2079,659.972
2080,665.886
2081,667.491
2082,501.039
2083,495.502
2084,422.679
2085,403.807
2086,347.124
2087,343.489
2088,334.568
2089,333.688
2090,333.222
2091,334.157
2092,398.651
2093,398.686
2094,537.259
2095,608.177
2096,626.27
2097,648.327
2098,659.746
2099,668.083
2100,653.871
2101,674.953
2102,678.43
2103,682.412
2104,687.512
2105,686.775
2106,521.477
2107,519.695
2108,444.36
2109,422.063
2110,364.759
2111,363.573
2112,354.72
2113,352.409
2114,350.745
2115,347.925
2116,411.14
2117,411.339
2118,549.892
2119,621.987
2120,638.078
2121,655.351
2122,660.208
2123,663.887
2124,647.232
2125,666.669
2126,669.639
2127,672.015
2128,678.14
2129,675.343
2130,499.782
2131,481.418
2132,396.666
2133,379.291
2134,331.009
2135,341.7
2136,342.356
2137,345.021
2138,344.923
2139,344.364
2140,408.762
2141,414.452
2142,554.602
2143,626.932
2144,643.88
2145,661.455
2146,666.263
2147,668.07
2148,648.654
2149,666.022
2150,665.873
2151,665.924
2152,671.952
2153,674.729
2154,515.373
2155,514.6
2156,439.557
2157,417.156
2158,359.417
2159,353.384
2160,343.354
2161,340.158
2162,339.186
2163,337.858
2164,351.187
2165,348.581
2166,389.697
2167,457.4
2168,452.073
2169,502.102
2170,502.22
2171,502.793
2172,488.035
2173,486.555
2174,490.062
2175,454.572
2176,469.551
2177,455.194
2178,425.228
2179,425.879
2180,364.631
2181,360.676
2182,346.754
2183,350.746
2184,345.884
2185,343.616
2186,345.514
2187,344.733
2188,359.732
2189,357.152
2190,388.508
2191,372.277
2192,419.17
2193,441.806
2194,451.038
2195,452.759
2196,451.722
2197,448.348
2198,448.487
2199,447.295
2200,438.118
2201,414.953
2202,390.61
2203,385.12
2204,368.969
2205,358.105
2206,339.043
2207,341.861
2208,332.845
2209,339.799
2210,340.386
2211,340.325
2212,404.987
2213,404.542
2214,540.253
2215,592.866
2216,604.791
2217,622.31
2218,627.36
2219,629.093
2220,615.12
2221,641.675
2222,649.724
2223,652.39
2224,656.782
2225,655.827
2226,494.436
2227,490.556
2228,409.128
2229,385.03
2230,328.854
2231,330.263
2232,324.176
2233,322.541
2234,321.3
2235,321.225
2236,384.599
2237,385.773
2238,523.661
2239,592.1
2240,611.69
2241,633.052
2242,644.818
2243,653.99
2244,639.478
2245,657.144
2246,649.976
2247,640.831
2248,642.415
2249,642.478
2250,474.299
2251,471.229
2252,399.773
2253,382.876
2254,331.951
2255,335.81
2256,332.299
2257,335.015
2258,337.306
2259,337.502
2260,401.301
2261,401.046
2262,539.912
2263,610.169
2264,628.474
2265,647.238
2266,655.753
2267,658.855
2268,638.775
2269,648.84
2270,648.126
2271,654.967
2272,663.333
2273,662.236
2274,490.509
2275,478.337
2276,404.507
2277,387.075
2278,330.767
2279,329.921
2280,325.501
2281,322.48
2282,325.555
2283,323.428
2284,385.334
2285,389.248
2286,528.442
2287,597.341
2288,612.606
2289,629.674
2290,639.949
2291,645.777
2292,634.028
2293,658.587
2294,659.968
2295,660.586
2296,666.821
2297,669.396
2298,500.229
2299,493.882
2300,414.56
2301,390.711
2302,332.694
2303,330.691
2304,323.004
2305,319.278
2306,318.034
2307,318.088
2308,385.27
2309,392.171
2310,541.483
2311,617.239
2312,641.063
2313,661.304
2314,669.697
2315,675.508
2316,661.55
2317,682.481
2318,684.519
2319,687.035
2320,694.13
2321,698.694
2322,530.433
2323,524.813
2324,448.476
2325,428.957
2326,375.068
2327,367.33
2328,348.075
2329,342.816
2330,339.895
2331,337.112
2332,351.75
2333,352.814
2334,395.491
2335,445.439
2336,444.608
2337,503.798
2338,511.543
2339,516.168
2340,501.808
2341,494.274
2342,494.59
2343,457.663
2344,467.081
2345,451.237
2346,428.314
2347,429.741
2348,376.82
2349,379.622
2350,363.481
2351,360.318
2352,353.117
2353,341.921
2354,344.078
2355,351.093
2356,370.084
2357,366.226
2358,409.597
2359,401.851
2360,443.744
2361,444.381
2362,448.779
2363,450.698
2364,450.342
2365,446.08
2366,444.586
2367,443.137
2368,430.457
2369,408.574
2370,381.902
2371,376.505
2372,366.257
2373,365.761
2374,351.377
2375,352.005
2376,345.088
2377,354.531
2378,353.646
2379,353.539
2380,418.405
2381,416.004
2382,551.483
2383,616.5
2384,629.133
2385,644.28
2386,651.193
2387,650.606
2388,636.265
2389,655.02
2390,655.832
2391,652.483
2392,655.466
2393,660.18
2394,500.068
2395,494.784
2396,414.675
2397,390.936
2398,333.402
2399,331.753
2400,327.532
2401,324.466
2402,322.338
2403,321.175
2404,382.882
2405,383.619
2406,522.176
2407,591.668
2408,613.963
2409,639.979
2410,654.526
2411,662.776
2412,646.95
2413,666.098
2414,669.192
2415,672.73
2416,679.41
2417,682.694
2418,520.379
2419,507.558
2420,430.273
2421,417.268
2422,363.61
2423,363.949
2424,356.6
2425,354.693
2426,354.972
2427,355.606
2428,420.76
2429,423.823
2430,564.833
2431,634.399
2432,652.74
2433,670.081
2434,678.709
2435,687.639
2436,674.03
2437,694.937
2438,697.581
2439,697.789
2440,700.828
2441,703.835
2442,535.298
2443,525.057
2444,448.403
2445,424.213
2446,368.794
2447,367.069
2448,358.979
2449,359.533
2450,359.791
2451,362.613
2452,432.383
2453,434.448
2454,573.813
2455,642.064
2456,665.147
2457,683.5
2458,688.066
2459,693.117
2460,679.772
2461,699.428
2462,701.908
2463,705.167
2464,709.359
2465,706.722
2466,531.518
2467,524.258
2468,448.721
2469,424.894
2470,367.454
2471,364.318
2472,356.886
2473,357.009
2474,355.521
2475,355.294
2476,422.133
2477,424.053
2478,566.362
2479,636.349
2480,661.066
2481,682.19
2482,687.83
2483,691.752
2484,678.755
2485,699.875
2486,700.848
2487,699.319
2488,704.447
2489,709.764
2490,539.773
2491,529.444
2492,452.813
2493,426.556
2494,366.553
2495,364.816
2496,357.069
2497,356.249
2498,353.821
2499,353.971
2500,372.5
2501,378.826
2502,431.815
2503,494.151
2504,501.672
2505,564.329
2506,571.36
2507,572.236
2508,557.354
2509,553.546
2510,551.095
2511,503.309
2512,505.407
2513,484.955
2514,456.136
2515,453.644
2516,394.332
2517,388.364
2518,369.208
2519,368.444
2520,361.894
2521,353.523
2522,354.476
2523,355.871
2524,374.07
2525,377.686
2526,427.682
2527,423.661
2528,468.397
2529,467.249
2530,473.193
2531,476.906
2532,474.08
2533,461.592
2534,449.073
2535,444.354
2536,434.519
2537,405.985
2538,382.688
2539,371.299
2540,353.85
2541,351.785
2542,332.8
2543,330.578
2544,321.926
2545,326.618
2546,322.708
2547,319.319
2548,383.373
2549,383.932
2550,522.013
2551,588.029
2552,608.22
2553,624.936
2554,630.752
2555,636.831
2556,622.608
2557,645.402
2558,651.457
2559,656.211
2560,663.852
2561,666.115
2562,502.439
2563,497.414
2564,424.463
2565,401.34
2566,342.242
2567,340.096
2568,333.386
2569,332.427
2570,328.605
2571,324.695
2572,386.958
2573,385.684
2574,523.5
2575,589.514
2576,612.578
2577,640.07
2578,654.394
2579,663.832
2580,649.512
2581,668.431
2582,671.059
2583,672.187
2584,675.797
2585,677.069
2586,506.749
2587,499.414
2588,424.936
2589,402.565
2590,344.812
2591,341.919
2592,335.263
2593,337.655
2594,338.656
2595,337.145
2596,400.962
2597,400.683
2598,537.928
2599,605.61
2600,635.153
2601,665.208
2602,679.571
2603,687.296
2604,669.03
2605,684.262
2606,687.271
2607,688.641
2608,691.922
2609,693.267
2610,521.485
2611,516.687
2612,441.522
2613,418.725
2614,362.209
2615,359.333
2616,350.403
2617,348.094
2618,346.106
2619,345.713
2620,410.628
2621,413.857
2622,554.036
2623,621.695
2624,649.952
2625,677.857
2626,689.743
2627,696.259
2628,680.164
2629,697.752
2630,699.066
2631,700.419
2632,706.5
2633,707.793
2634,529.577
2635,522.143
2636,447.282
2637,423.72
2638,366.447
2639,362.976
2640,353.13
2641,351.075
2642,349.329
2643,347.403
2644,414.274
2645,418.086
2646,558.096
2647,626.805
2648,651.295
2649,673.57
2650,687.135
2651,694.584
2652,679.925
2653,700.819
2654,705.056
2655,707.443
2656,709.642
2657,709.565
2658,536.724
2659,526.24
2660,442.295
2661,410.99
2662,347.375
2663,339.402
2664,328.239
2665,325.679
2666,322.346
2667,319.746
2668,334.676
2669,334.45
2670,380.826
2671,440.73
2672,445.596
2673,504.898
2674,512.845
2675,520.866
2676,515.756
2677,521.521
2678,529.09
2679,489.48
2680,492.295
2681,463.672
2682,426.074
2683,418.507
2684,358.153
2685,350.672
2686,328.77
2687,325.202
2688,318.631
2689,309.972
2690,309.69
2691,309.423
2692,324.99
2693,324.799
2694,371.221
2695,364.96
2696,406.853
2697,407.992
2698,417.636
2699,423.521
2700,427.669
2701,427.258
2702,430.585
2703,431.86
2704,419.85
2705,395.755
2706,369.441
2707,363.792
2708,355.817
2709,352.006
2710,332.561
2711,329.643
2712,319.912
2713,325.608
2714,323.875
2715,321.662
2716,384.559
2717,384.794
2718,522.48
2719,589.238
2720,614.544
2721,638.458
2722,648.777
2723,653.215
2724,636.11
2725,655.574
2726,658.569
2727,661.01
2728,665.481
2729,664.885
2730,497.891
2731,488.819
2732,411.909
2733,389.215
2734,342.221
2735,347.344
2736,342.053
2737,339.836
2738,338.563
2739,337.879
2740,402.86
2741,402.994
2742,539.955
2743,603.859
2744,621.166
2745,641.575
2746,650.458
2747,653.757
2748,638.921
2749,655.746
2750,655.027
2751,655.894
2752,663.749
2753,665.287
2754,503.664
2755,496.642
2756,421.255
2757,400.841
2758,348.979
2759,350.124
2760,342.09
2761,340.148
2762,339.638
2763,339.925
2764,403.842
2765,404.496
2766,540.869
2767,611.179
2768,632.147
2769,650.55
2770,657.6
2771,655.553
2772,635.335
2773,649.118
2774,650.884
2775,656.801
2776,663.216
2777,667.299
2778,497.869
2779,497.491
2780,426.501
2781,407.746
2782,354.085
2783,347.517
2784,328.039
2785,322.309
2786,328.296
2787,329.604
2788,392.38
2789,394.981
2790,531.37
2791,599.183
2792,616.934
2793,636.77
2794,642.588
2795,645.658
2796,628.401
2797,649.499
2798,652.619
2799,656.847
2800,663.063
2801,665.962
2802,494.865
2803,484.785
2804,406.788
2805,382.87
2806,324.626
2807,323.983
2808,317.589
2809,317.571
2810,318.532
2811,321.512
2812,387.651
2813,387.572
2814,521.164
2815,589.147
2816,610.753
2817,631.612
2818,646.263
2819,653.653
2820,635.786
2821,652.478
2822,654.416
2823,656.252
2824,659.002
2825,659.382
2826,490.044
2827,483.467
2828,410.141
2829,388.04
2830,331.325
2831,330.979
2832,324.863
2833,324.264
2834,324.894
2835,326.196
2836,341.633
2837,340.96
2838,384.469
2839,446.825
2840,453.647
2841,517.815
2842,529.86
2843,537.838
2844,527.553
2845,524.526
2846,524.673
2847,483.115
2848,486.996
2849,466.798
2850,439.083
2851,435.622
2852,376.746
2853,371.956
2854,351.282
2855,349.012
2856,341.662
2857,332.647
2858,329.975
2859,328.484
2860,344.654
2861,343.03
2862,387.195
2863,384.384
2864,428.955
2865,429.203
2866,436.717
2867,443.116
2868,447.617
2869,444.914
2870,442.836
2871,440.999
2872,429.802
2873,404.669
2874,378.717
2875,371.946
2876,360.647
2877,356.451
2878,336.596
2879,334.664
2880,327.037
2881,333.422
2882,332.345
2883,332.396
2884,399.041
2885,401.831
2886,538.568
2887,609.288
2888,634.696
2889,659.108
2890,669.202
2891,672.107
2892,654.762
2893,673.543
2894,673.321
2895,674.858
2896,680.823
2897,683.221
2898,519.022
2899,513.318
2900,438.094
2901,420.501
2902,365.022
2903,362.826
2904,354.627
2905,355.367
2906,355.359
2907,355.699
2908,423.272
2909,423.677
2910,558.215
2911,626.891
2912,648.448
2913,666.276
2914,671.747
2915,675.452
2916,657.143
2917,675.057
2918,679.445
2919,682.57
2920,688.922
2921,692.236
2922,526.331
2923,523.256
2924,448.992
2925,430.34
2926,372.73
2927,367.001
2928,358.6
2929,358.048
2930,358.725
2931,359.92
2932,424.895
2933,424.05
2934,558.461
2935,625.956
2936,645.193
2937,665.379
2938,673.451
2939,674.475
2940,659.53
2941,683.304
2942,688.095
2943,689.435
2944,691.196
2945,691.787
2946,520.13
2947,510.115
2948,429.957
2949,408.319
2950,351.814
2951,352.812
2952,346.051
2953,341.484
2954,336.254
2955,329.427
2956,387.354
2957,384.719
2958,521.919
2959,592.036
2960,612.419
2961,629.504
2962,635.87
2963,641.991
2964,626.009
2965,646.257
2966,649.388
2967,654.53
2968,661.236
2969,663.763
2970,493.732
2971,488.15
2972,410.075
2973,390.242
2974,332.876
2975,331.4
2976,322.305
2977,319.622
2978,318.272
2979,318.07
2980,384.594
2981,385.154
2982,522.382
2983,592.164
2984,613.456
2985,634.965
2986,645.849
2987,652.227
2988,637.019
2989,657.743
2990,660.813
2991,665.205
2992,673.048
2993,676.416
2994,501.778
2995,495.281
2996,418.193
2997,401.069
2998,346.436
2999,345.815
3000,338.096
3001,336.985
3002,336.866
3003,335.662
3004,348.859
3005,347.949
3006,390.398
3007,453.039
3008,464.45
3009,532.693
3010,546.109
3011,554.457
3012,542.421
3013,538.11
3014,538.999
3015,494.309
3016,499.353
3017,480.114
3018,449.743
3019,446.286
3020,386.629
3021,385.557
3022,366.288
3023,364.295
3024,356.117
3025,345.055
3026,342.785
3027,341.323
3028,355.668
3029,355.167
3030,399.94
3031,397.636
3032,442.865
3033,449.359
3034,462.854
3035,469.287
3036,472.736
3037,470.503
3038,469.376
3039,468.897
3040,455.655
3041,427.669
3042,398.644
3043,396.08
3044,389.166
3045,392.372
3046,377.221
3047,375.918
3048,368.612
3049,380.538
3050,381.801
3051,375.766
3052,435.664
3053,434.431
3054,569.432
3055,634.276
3056,647.087
3057,658.047
3058,660.243
3059,660.464
3060,640.977
3061,658.094
3062,659.711
3063,661.198
3064,662.636
3065,661.632
3066,498.546
3067,492.894
3068,414.344
3069,392.536
3070,333.785
3071,330.665
3072,322.178
3073,321.438
3074,321.505
3075,321.639
3076,388.775
3077,390.32
3078,526.111
3079,595.554
3080,615.662
3081,631.061
3082,635.601
3083,639.254
3084,623.201
3085,643.03
3086,646.371
3087,649.085
3088,653.45
3089,654.087
3090,490.637
3091,486.762
3092,414.028
3093,398.336
3094,345.11
3095,346.299
3096,341.268
3097,342.275
3098,343.441
3099,343.749
3100,410.677
3101,414.615
3102,554.173
3103,626.778
3104,648.536
3105,666.913
3106,674.706
3107,680.606
3108,665.186
3109,685.405
3110,692.9
3111,698.825
3112,702.659
3113,702.785
3114,534.323
3115,529.76
3116,453.952
3117,433.141
3118,375.782
3119,375.411
3120,368.791
3121,366.289
3122,362.609
3123,360.835
3124,424.713
3125,424.366
3126,563.815
3127,638.194
3128,663.32
3129,684.602
3130,691.462
3131,694.522
3132,677.81
3133,697.786
3134,703.469
3135,709.632
3136,715.106
3137,715.112
3138,541.503
3139,532.301
3140,457.941
3141,440.13
3142,385.101
3143,384.411
3144,376.164
3145,374.247
3146,373.494
3147,372.4
3148,436.267
3149,434.999
3150,570.06
3151,644.088
3152,670.139
3153,692.542
3154,702.499
3155,711.601
3156,697.888
3157,715.789
3158,720.354
3159,721.977
3160,724.671
3161,725.097
3162,549.082
3163,538.957
3164,464.08
3165,448.579
3166,393.944
3167,391.88
3168,378.158
3169,370.336
3170,366.368
3171,363.969
3172,378.886
3173,377.084
3174,416.045
3175,483.645
3176,494.634
3177,558.825
3178,571.175
3179,578.41
3180,565.553
3181,561
3182,555.988
3183,507.131
3184,508.528
3185,492.814
3186,468.125
3187,463.794
3188,403.242
3189,404.144
3190,388.972
3191,388.226
3192,378.969
3193,368.481
3194,367.361
3195,366.796
3196,380.98
3197,379.128
3198,420.814
3199,420.705
3200,465.302
3201,466.64
3202,471.955
3203,475.292
3204,478.828
3205,476.371
3206,478.298
3207,477.979
3208,463.694
3209,440.495
3210,417.078
3211,414.321
3212,406.074
3213,408.101
3214,391.854
3215,390.157
3216,380.973
3217,386.99
3218,383.967
3219,381.128
3220,442.37
3221,439.528
3222,572.261
3223,647.53
3224,673.976
3225,696.514
3226,704.324
3227,708.454
3228,693.483
3229,714.138
3230,718.911
3231,722.787
3232,726.375
3233,722.014
3234,545.273
3235,534.442
3236,456.079
3237,432.044
3238,368.485
3239,361.546
3240,351.722
3241,348.014
3242,343.865
3243,340.891
3244,406.097
3245,404.817
3246,536.882
3247,607.828
3248,630.019
3249,651.629
3250,660.906
3251,664.862
3252,648.594
3253,671.016
3254,679.792
3255,686.251
3256,692.148
3257,695.673
3258,520.455
3259,513.524
3260,437.808
3261,418.195
3262,361.296
3263,359.78
3264,350.381
3265,345.717
3266,341.616
3267,337.523
3268,399.81
3269,399.881
3270,534.915
3271,608.459
3272,630.977
3273,651.295
3274,658.259
3275,657.993
3276,638.528
3277,661.981
3278,664.726
3279,663.946
3280,666.869
3281,664.014
3282,490.047
3283,484.929
3284,409.249
3285,389.926
3286,333.575
3287,332.113
3288,324.509
3289,324.008
3290,323.395
3291,322.543
3292,386.825
3293,386.448
3294,521.728
3295,594.578
3296,615.034
3297,632.474
3298,639.45
3299,644.468
3300,628.933
3301,649.865
3302,654.935
3303,660.924
3304,667.889
3305,669.93
3306,498.241
3307,492.479
3308,415.918
3309,394.869
3310,336.381
3311,334.204
3312,325.663
3313,323.573
3314,322.265
3315,320.149
3316,385.13
3317,385.835
3318,520.695
3319,592.836
3320,615.6
3321,639.446
3322,650.073
3323,656.843
3324,641.578
3325,664.101
3326,670.023
3327,672.928
3328,677.186
3329,678.738
3330,503.935
3331,496.043
3332,421.241
3333,402.061
3334,344.943
3335,343.521
3336,335.54
3337,333.755
3338,332.471
3339,332.34
3340,349.034
3341,350.147
3342,391.935
3343,459.798
3344,471.83
3345,539.6
3346,549.644
3347,550.931
3348,537.114
3349,536.996
3350,539.32
3351,494.793
3352,501.039
3353,483.009
3354,453.507
3355,448.141
3356,388.604
3357,392.529
3358,378.019
3359,377.808
3360,370.701
3361,361.371
3362,359.625
3363,358.154
3364,374.438
3365,374.346
3366,414.557
3367,415.577
3368,462.783
3369,466.561
3370,476.762
3371,480.608
3372,481.25
3373,476.171
3374,474.129
3375,473.477
3376,462.924
3377,438.33
3378,410.642
3379,407.305
3380,395.985
3381,399.725
3382,384.111
3383,384.109
3384,375.161
3385,377.905
3386,374.66
3387,375.015
3388,441.133
3389,439.61
3390,570.496
3391,641.29
3392,662.413
3393,683.151
3394,694.72
3395,703.895
3396,691.935
3397,714.276
3398,721.097
3399,721.757
3400,721.334
3401,720.764
3402,556.793
3403,552.681
3404,472.554
3405,451.975
3406,391.06
3407,386.487
3408,375.722
3409,373.824
3410,374.58
3411,375.768
3412,445.02
3413,447.399
3414,582.885
3415,656.195
3416,677.895
3417,695.926
3418,698.659
3419,695.242
3420,672.451
3421,687.247
3422,688.57
3423,689.954
3424,695.681
3425,693.227
3426,515.032
3427,505.249
3428,423.364
3429,405.894
3430,348.996
3431,346.458
3432,337.054
3433,333.937
3434,332.407
3435,329.484
3436,391.501
3437,392.579
3438,530.238
3439,605.698
3440,629.387
3441,649.973
3442,657.954
3443,662.278
3444,648.132
3445,671.614
3446,673.136
3447,674.87
3448,681.246
3449,680.7
3450,505.188
3451,499
3452,420.14
3453,402.708
3454,344.581
3455,341.523
3456,332.914
3457,331.838
3458,330.437
3459,328.479
3460,392.644
3461,391.881
3462,526.798
3463,602.88
3464,629.808
3465,653.272
3466,664.159
3467,672.029
3468,656.506
3469,674.473
3470,678.201
3471,680.658
3472,683.792
3473,684.727
3474,509.667
3475,503.573
3476,426.236
3477,413.224
3478,359.848
3479,359.751
3480,352.97
3481,351.232
3482,348.197
3483,345.497
3484,409.229
3485,408.995
3486,543.763
3487,618.904
3488,646.705
3489,670.761
3490,683.604
3491,686.751
3492,664.704
3493,681.243
3494,683.594
3495,687.42
3496,692.167
3497,692.984
3498,513.931
3499,509.383
3500,431.651
3501,416.73
3502,362.725
3503,360.057
3504,351.264
3505,349.217
3506,347.173
3507,344.888
3508,358.587
3509,356.449
3510,395.752
3511,463.794
3512,474.856
3513,538.609
3514,549.461
3515,555.472
3516,541.023
3517,539.097
3518,541.605
3519,495.552
3520,497.704
3521,476.246
3522,445.609
3523,442.055
3524,380.941
3525,382.977
3526,367.268
3527,369.112
3528,362.042
3529,351.86
3530,349.529
3531,347.637
3532,362.635
3533,362.348
3534,404.028
3535,403.746
3536,446.695
3537,445.132
3538,454.227
3539,460.337
3540,465.245
3541,468.402
3542,469.173
3543,469.53
3544,459.129
3545,434.171
3546,407.457
3547,403.615
3548,396.075
3549,401.069
3550,380.113
3551,375.954
3552,368.642
3553,372.281
3554,375.112
3555,374.393
3556,388.259
3557,384.857
3558,421.925
3559,416.764
3560,456.317
3561,454.475
3562,462.546
3563,466.848
3564,465.391
3565,461.423
3566,460.674
3567,460.348
3568,452.301
3569,431.826
3570,407.134
3571,402.506
3572,392.384
3573,396.585
3574,379.936
3575,378.063
3576,369.232
3577,374.967
3578,372.662
3579,371.039
3580,435.66
3581,435.314
3582,567.644
3583,641.793
3584,669.494
3585,694.466
3586,706.67
3587,708.479
3588,690.204
3589,712.988
3590,714.926
3591,715.309
3592,719.37
3593,720.763
3594,554.985
3595,550.922
3596,474.675
3597,459.056
3598,402.78
3599,400.746
3600,392.226
3601,389.749
3602,388.058
3603,385.874
3604,449.148
3605,448.043
3606,581.566
3607,655.427
3608,680.537
3609,703.91
3610,713.102
3611,716.854
3612,700.081
3613,720.688
3614,723.079
3615,727.59
3616,735.95
3617,743.701
3618,566.021
3619,561.128
3620,482.21
3621,465.023
3622,409.285
3623,408.022
3624,400.194
3625,395.414
3626,390.28
3627,386.707
3628,449.972
3629,449.968
3630,585.234
3631,657.833
3632,679.142
3633,699.249
3634,707.138
3635,712.719
3636,699.579
3637,721.307
3638,726.092
3639,733.166
3640,742.919
3641,749.276
3642,560.806
3643,555.067
3644,478.735
3645,463.486
3646,407.697
3647,406.176
3648,396.918
3649,392.502
3650,388.171
3651,387.211
3652,453.951
3653,454.659
3654,591.189
3655,668.223
3656,695.704
3657,718.667
3658,729.75
3659,737.617
3660,724.737
3661,748.883
3662,755.319
3663,762.055
3664,770
3665,773.144
3666,565.894
3667,559.833
3668,482.487
3669,466.231
3670,411.129
3671,412.181
3672,404.813
3673,403.254
3674,401.275
3675,398.595
3676,409.617
3677,403.519
3678,442.536
3679,510.699
3680,516.283
3681,576.841
3682,584.844
3683,589.838
3684,575.686
3685,574.266
3686,579.417
3687,534.286
3688,537.232
3689,515.094
3690,484.832
3691,484.477
3692,424.379
3693,427.392
3694,408.603
3695,406.76
3696,396.909
3697,378.627
3698,372.501
3699,368.613
3700,379.225
3701,374.494
3702,412.368
3703,410.085
3704,452.388
3705,451.676
3706,458.876
3707,464.921
3708,470.256
3709,471.198
3710,474.179
3711,476.505
3712,466.539
3713,440.513
3714,411.74
3715,405.747
3716,391.374
3717,390.532
3718,368.947
3719,364.741
3720,357.169
3721,364.956
3722,364.855
3723,364.81
3724,428.52
3725,429.064
3726,562.64
3727,633.919
3728,661.937
3729,686.055
3730,692.098
3731,694.74
3732,677.318
3733,697.669
3734,702.728
3735,706.857
3736,714.308
3737,718.808
3738,546.669
3739,536.58
3740,456.032
3741,440.583
3742,385.313
3743,384.585
3744,375.814
3745,372.723
3746,371.026
3747,370.819
3748,440.725
3749,445.98
3750,583.063
3751,657.532
3752,679.373
3753,696.564
3754,703.09
3755,708.207
3756,689.43
3757,704.898
3758,707.618
3759,712.74
3760,719.896
3761,724.531
3762,553.721
3763,550.635
3764,473.988
3765,454.695
3766,396.609
3767,392.631
3768,382.202
3769,380.178
3770,379.735
3771,380.273
3772,447.932
3773,452.061
3774,589.314
3775,664.531
3776,688.666
3777,709.884
3778,721.582
3779,734.348
3780,725.123
3781,749.35
3782,756.472
3783,762.64
3784,769.455
3785,770.024
3786,565.878
3787,562.27
3788,486.005
3789,469.347
3790,411.994
3791,412.456
3792,406.108
3793,405.655
3794,404.883
3795,405.045
3796,471.039
3797,473.534
3798,610.963
3799,684.791
3800,707.193
3801,727.541
3802,736.811
3803,745.752
3804,732.256
3805,753.944
3806,761.764
3807,774.382
3808,784.919
3809,786.442
3810,570.814
3811,567.096
3812,490.341
3813,470.365
3814,412.95
3815,411.236
3816,403.436
3817,401.471
3818,401.853
3819,402.144
3820,468.678
3821,470.898
3822,607.31
3823,681.611
3824,704.072
3825,721.525
3826,727.593
3827,732.881
3828,721.781
3829,744.101
3830,747.08
3831,751.921
3832,761.57
3833,766.644
3834,560.885
3835,554.885
3836,476.456
3837,456.344
3838,396.179
3839,391.756
3840,383.435
3841,383.135
3842,381.661
3843,379.092
3844,391.379
3845,389.001
3846,431.172
3847,498.459
3848,507.239
3849,573.695
3850,585.115
3851,593.209
3852,582.404
3853,582.278
3854,583.771
3855,536.798
3856,540.631
3857,520.173
3858,490.313
3859,486.81
3860,424.525
3861,427.516
3862,409.967
3863,408.761
3864,401.235
3865,393.719
3866,388.329
3867,367.611
3868,366.232
3869,354.19
3870,386.17
3871,379.593
3872,422.034
3873,422.531
3874,429.874
3875,434.547
3876,438.668
3877,440.269
3878,445.051
3879,448.745
3880,435.238
3881,405.199
3882,376.938
3883,370.577
3884,355.739
3885,355.393
3886,335.605
3887,333.857
3888,325.604
3889,331.438
3890,329.478
3891,327.283
3892,391.015
3893,389.855
3894,521.969
3895,598.489
3896,628.133
3897,650.674
3898,659.294
3899,666.788
3900,650.513
3901,668.437
3902,672.569
3903,679.09
3904,688.067
3905,690.658
3906,518.989
3907,513.498
3908,434.982
3909,419.164
3910,362.824
3911,361.905
3912,355.081
3913,352.721
3914,349.44
3915,345.659
3916,408.384
3917,406.967
3918,542.204
3919,619.468
3920,647.98
3921,670.068
3922,678.433
3923,685.236
3924,671.115
3925,691.282
3926,695.074
3927,696.87
3928,700.748
3929,700.832
3930,520.57
3931,512.152
3932,431.427
3933,412.627
3934,355.063
3935,354.688
3936,348.83
3937,348.846
3938,347.96
3939,345.721
3940,409.738
3941,411.951
3942,548.754
3943,625.48
3944,653.877
3945,679.082
3946,691.379
3947,699.279
3948,684.227
3949,702.092
3950,703.405
3951,705.387
3952,709.556
3953,709.65
3954,526.107
3955,517.69
3956,436.467
3957,418.99
3958,362.741
3959,361.65
3960,354.089
3961,352.058
3962,348.694
3963,345.98
3964,410.325
3965,411.874
3966,548.64
3967,624.429
3968,649.865
3969,672.091
3970,681.813
3971,683.853
3972,661.972
3973,678.992
3974,680.064
3975,678.148
3976,680.462
3977,681.707
3978,500.984
3979,493.455
3980,419.684
3981,405.56
3982,350.502
3983,350.156
3984,343.171
3985,343.563
3986,344.586
3987,343.88
3988,409.356
3989,412.039
3990,549.468
3991,624.075
3992,648.946
3993,671.381
3994,684.08
3995,694.94
3996,681.193
3997,698.041
3998,699.751
3999,699.357
4000,705.481
4001,712.273
4002,534.809
4003,524.485
4004,442.466
4005,425.221
4006,369.402
4007,369.79
4008,361.08
4009,357.269
4010,356.243
4011,353.49
4012,365.575
4013,364.479
4014,405.55
4015,472.287
4016,481.588
4017,546.487
4018,555.655
4019,563.337
4020,557.321
4021,557.695
4022,555.005
4023,505.352
4024,509.501
4025,490.585
4026,463.268
4027,462.219
4028,401.71
4029,408.131
4030,389.445
4031,388.939
4032,379.137
4033,366.35
4034,364.454
4035,363.867
4036,380.716
4037,378.89
4038,417.473
4039,417.227
4040,463.868
4041,468.989
4042,480.074
4043,485.907
4044,490.803
4045,490.918
4046,491.9
4047,492.587
4048,480.735
4049,455.696
4050,430.043
4051,426.298
4052,412.32
4053,418.379
4054,401.509
4055,394.591
4056,377.672
4057,390.83
4058,390.624
4059,388.149
4060,450.752
4061,453.056
4062,585.912
4063,656.934
4064,681.524
4065,706.894
4066,720.149
4067,728.342
4068,710.452
4069,727.625
4070,730.379
4071,734.863
4072,742.718
4073,746.027
4074,561.054
4075,555.687
4076,477.529
4077,465.468
4078,411.828
4079,413.147
4080,405.803
4081,404.284
4082,403.384
4083,401.722
4084,465.448
4085,461.666
4086,596.152
4087,672.975
4088,697.632
4089,717.301
4090,724.225
4091,726.644
4092,708.427
4093,728.274
4094,732.251
4095,735.607
4096,744.796
4097,748.745
4098,560.358
4099,554.316
4100,475.446
4101,462.896
4102,407.083
4103,406.537
4104,397.207
4105,390.435
4106,385.188
4107,383.592
4108,448.205
4109,451.783
4110,590.136
4111,665.975
4112,686.852
4113,699.95
4114,705.689
4115,716.82
4116,704.46
4117,726.15
4118,731.42
4119,741.088
4120,754.921
4121,758.894
4122,564.418
4123,558.946
4124,478.892
4125,465.383
4126,409.362
4127,408.665
4128,401.131
4129,400.505
4130,399.251
4131,399.434
4132,462.482
4133,461.656
4134,598.037
4135,673.92
4136,698.469
4137,719.586
4138,728.352
4139,736.833
4140,724.166
4141,746.368
4142,750.095
4143,755.673
4144,764.71
4145,768.632
4146,561.516
4147,553.591
4148,474.768
4149,463.416
4150,407.788
4151,406.822
4152,398.437
4153,393.227
4154,391.109
4155,388.655
4156,450.41
4157,453.09
4158,593.251
4159,670.487
4160,698.611
4161,724.246
4162,735.399
4163,749.827
4164,740.93
4165,762.78
4166,767.457
4167,770.3
4168,773.36
4169,768.437
4170,556.804
4171,551.017
4172,474.143
4173,463.644
4174,408.623
4175,407.649
4176,398.665
4177,393.097
4178,391.754
4179,392.603
4180,410.059
4181,409.009
4182,447.779
4183,514.238
4184,522.72
4185,590.269
4186,598.334
4187,601.774
4188,587.353
4189,579.81
4190,576.267
4191,535.866
4192,543.048
4193,520.689
4194,492.125
4195,490.074
4196,424.386
4197,426.413
4198,408.523
4199,407.342
4200,400.436
4201,389.746
4202,387.671
4203,383.776
4204,390.374
4205,381.599
4206,417.692
4207,413.896
4208,453.507
4209,448.928
4210,452.913
4211,457.236
4212,460.968
4213,457.184
4214,454.947
4215,452.947
4216,440.528
4217,416.215
4218,391.109
4219,387.948
4220,374.871
4221,380.523
4222,362.762
4223,361.156
4224,352.077
4225,358.507
4226,358.086
4227,357.783
4228,422.957
4229,424.379
4230,557.487
4231,629.472
4232,651.362
4233,668.687
4234,674.223
4235,678.361
4236,660.783
4237,679.853
4238,685.841
4239,690.119
4240,695.051
4241,694.167
4242,524.769
4243,520.364
4244,441.102
4245,426.284
4246,366.591
4247,363.608
4248,354.722
4249,351.978
4250,350.726
4251,352.847
4252,421.923
4253,423.675
4254,558.881
4255,631.797
4256,652.485
4257,670.99
4258,683.294
4259,689.438
4260,669.937
4261,694.218
4262,704.305
4263,708.399
4264,712.127
4265,711.325
4266,534.473
4267,525.467
4268,444.848
4269,431.245
4270,374.622
4271,372.484
4272,365.646
4273,364.153
4274,361.553
4275,359.651
4276,423.867
4277,425.757
4278,562.402
4279,637.516
4280,661.162
4281,681.626
4282,690.782
4283,695.361
4284,679.111
4285,700.557
4286,705.274
4287,708.939
4288,712.613
4289,712.766
4290,534.243
4291,528.801
4292,448.017
4293,433.931
4294,375.841
4295,375.369
4296,372.092
4297,370.356
4298,366.739
4299,365.787
4300,430.184
4301,431.69
4302,569.066
4303,646.742
4304,672.777
4305,694.301
4306,703.125
4307,705.726
4308,686.382
4309,705.748
4310,711.192
4311,718.682
4312,726.045
4313,726.476
4314,545.754
4315,539.162
4316,460.94
4317,448.165
4318,394.055
4319,394.964
4320,387.046
4321,384.193
4322,381.975
4323,382.012
4324,450.967
4325,456.545
4326,594.503
4327,670.392
4328,695.624
4329,716.863
4330,728.641
4331,739.474
4332,723.211
4333,736.651
4334,737.668
4335,735.409
4336,735.909
4337,737.914
4338,553.041
4339,546.135
4340,458.35
4341,440.014
4342,385.237
4343,385.032
4344,378.655
4345,379.872
4346,381.404
4347,381.924
4348,397.603
4349,397.209
4350,438.337
4351,506.439
4352,518.048
4353,587.489
4354,598.341
4355,603.992
4356,590.698
4357,591.702
4358,596.366
4359,545.899
4360,548.333
4361,524.202
4362,492.249
4363,489.039
4364,429.296
4365,436.455
4366,419.777
4367,420.746
4368,414.646
4369,404.769
4370,402.201
4371,400.615
4372,416.077
4373,415.935
4374,458.095
4375,458.021
4376,502.427
4377,501.538
4378,506.669
4379,507.77
4380,508.711
4381,503.573
4382,500.843
4383,502.99
4384,495.331
4385,469.563
4386,444.357
4387,440.988
4388,427.235
4389,433.849
4390,415.921
4391,413.352
4392,406.385
4393,412.696
4394,410.932
4395,408.812
4396,474.409
4397,473.732
4398,609.582
4399,685.06
4400,709.517
4401,736.91
4402,759.067
4403,770.022
4404,757.964
4405,776.961
4406,776.633
4407,777.994
4408,782.707
4409,782.481
4410,573.641
4411,570.05
4412,490.164
4413,475.933
4414,416.441
4415,412.985
4416,406.77
4417,399.433
4418,401.594
4419,401.304
4420,415.182
4421,414.459
4422,454.465
4423,453.418
4424,499.308
4425,499.913
4426,507.9
4427,511.355
4428,512.36
4429,509.38
4430,508.2
4431,500.592
4432,476.172
4433,450.718
4434,425.321
4435,420.559
4436,406.766
4437,412.58
4438,390.477
4439,387.908
4440,380.086
4441,387.437
4442,384.218
4443,374.319
4444,429.45
4445,425.145
4446,558.772
4447,631.884
4448,654.822
4449,679.702
4450,688.23
4451,687.037
4452,667.921
4453,688.332
4454,691.821
4455,693.417
4456,699.811
4457,701.102
4458,522.235
4459,514.434
4460,432.593
4461,416.333
4462,357.043
4463,354.72
4464,347.536
4465,345.088
4466,342.339
4467,340.662
4468,403.801
4469,404.943
4470,540.411
4471,615.684
4472,643.843
4473,669.145
4474,680.165
4475,688.895
4476,677.145
4477,694.557
4478,695.888
4479,702.083
4480,709.815
4481,711.192
4482,532.574
4483,528.692
4484,448.031
4485,433.005
4486,376.194
4487,375.452
4488,367.025
4489,362.559
4490,359.625
4491,358.653
4492,425.417
4493,426.53
4494,560.359
4495,638.984
4496,670.934
4497,692.95
4498,700.9
4499,706.192
4500,689.372
4501,709.559
4502,715.632
4503,720.853
4504,728.309
4505,730.576
4506,552.835
4507,548.171
4508,466.514
4509,450.304
4510,390.651
4511,390.364
4512,385.409
4513,385.942
4514,384.762
4515,384.482
4516,400.079
4517,397.299
4518,436.971
4519,505.497
4520,516.651
4521,583.981
4522,594.735
4523,598.806
4524,585.218
4525,580.824
4526,578.538
4527,533.799
4528,542.855
4529,522.979
4530,489.779
4531,481.321
4532,416.925
4533,422.73
4534,405.989
4535,405.491
4536,396.978
4537,386.463
4538,383.966
4539,382.671
4540,394.996
4541,389.338
4542,427.917
4543,427.377
4544,474.831
4545,477.4
4546,486.587
4547,495.762
4548,496.007
4549,493.181
4550,500.326
4551,501.321
4552,488.454
4553,460.941
4554,435.721
4555,434.641
4556,418.202
4557,422.775
4558,409.269
4559,408.973
4560,399.915
4561,402.296
4562,399.935
4563,395.501
4564,458.463
4565,459.747
4566,598.189
4567,674.56
4568,696.165
4569,715.888
4570,724.465
4571,726.949
4572,706.63
4573,721.784
4574,723.574
4575,725.281
4576,728.957
4577,729.286
4578,555.833
4579,549.239
4580,466.949
4581,446.984
4582,387.178
4583,385.663
4584,377.493
4585,374.978
4586,372.861
4587,371.035
4588,434.118
4589,433.725
4590,568.471
4591,646.768
4592,677.682
4593,702.085
4594,712.654
4595,717.528
4596,701.747
4597,722.07
4598,724.343
4599,728.392
4600,738.719
4601,742.678
4602,556.298
4603,549.497
4604,469.416
4605,454.808
4606,396.866
4607,393.08
4608,380.548
4609,376.105
4610,375.721
4611,376.142
4612,440.59
4613,441.122
4614,579.388
4615,660.005
4616,690.109
4617,716.196
4618,724.711
4619,728.399
4620,711.79
4621,733.827
4622,739.494
4623,744.758
4624,756.225
4625,764.572
4626,561.794
4627,555.419
4628,477.144
4629,467.63
4630,413.872
4631,413.395
4632,407.025
4633,404.792
4634,399.752
4635,393.986
4636,456.362
4637,457.496
4638,595.239
4639,676.304
4640,703.746
4641,727.588
4642,743.277
4643,756.937
4644,744.082
4645,765.561
4646,772.305
4647,778.37
4648,781.641
4649,777.244
4650,561.434
4651,555.573
4652,476.044
4653,462.837
4654,406.56
4655,406.381
4656,400.401
4657,398.398
4658,396.559
4659,394.68
4660,459.105
4661,462.174
4662,601.856
4663,680.049
4664,706.579
4665,730.895
4666,747.183
4667,758.874
4668,748.601
4669,771.183
4670,768.082
4671,757.699
4672,759.021
4673,762.099
4674,564.244
4675,557.552
4676,475.802
4677,462.327
4678,406.31
4679,406.195
4680,398.456
4681,394.144
4682,393.649
4683,395.414
4684,410.964
4685,410.293
4686,451.61
4687,520.877
4688,531.264
4689,595.913
4690,604.118
4691,606.841
4692,594.364
4693,591.637
4694,590.65
4695,539.257
4696,534.792
4697,518.327
4698,493.648
4699,489.336
4700,428.291
4701,431.115
4702,414.009
4703,414.863
4704,407.537
4705,396.724
4706,393.83
4707,392.096
4708,402.917
4709,399.081
4710,439.115
4711,440.017
4712,486.027
4713,489.739
4714,498.951
4715,505.707
4716,505.736
4717,499.457
4718,497.986
4719,496.523
4720,481.762
4721,457.579
4722,434.363
4723,430.641
4724,417.698
4725,421.839
4726,403.356
4727,401.473
4728,392.444
4729,390.37
4730,377.289
4731,369.14
4732,430.405
4733,428.291
4734,557.086
4735,631.721
4736,662.78
4737,686.933
4738,694.056
4739,699.497
4740,681.395
4741,698.901
4742,705.018
4743,709.303
4744,717.168
4745,720.621
4746,549.083
4747,542.288
4748,466.786
4749,450.688
4750,390.857
4751,387.344
4752,381.382
4753,381.696
4754,381.814
4755,378.824
4756,439.886
4757,439.244
4758,577.733
4759,655.408
4760,682.761
4761,708.807
4762,722.238
4763,729.611
4764,714.777
4765,732.071
4766,725.538
4767,723.55
4768,730.288
4769,733.312
4770,553.56
4771,550.614
4772,475.486
4773,460.677
4774,405.673
4775,404.042
4776,397.349
4777,395.867
4778,393.965
4779,391.461
4780,453.248
4781,456.071
4782,592.201
4783,669.655
4784,695.622
4785,718.042
4786,730.438
4787,742.183
4788,734.088
4789,756.128
4790,759.788
4791,764.057
4792,769.978
4793,767.087
4794,559.71
4795,557.547
4796,483.128
4797,466.746
4798,410.523
4799,409.091
4800,399.982
4801,396.671
4802,392.643
4803,391.642
4804,459.163
4805,461.941
4806,599.704
4807,674.45
4808,701.55
4809,724.57
4810,734.296
4811,738.692
4812,722.615
4813,746.503
4814,755.588
4815,767.65
4816,778.524
4817,781.854
4818,570.27
4819,565.74
4820,487.53
4821,468.084
4822,410.437
4823,408.688
4824,399.204
4825,396.514
4826,390.598
4827,385.849
4828,453.239
4829,458.497
4830,598.702
4831,672.096
4832,696.962
4833,716.723
4834,722.625
4835,725.235
4836,708.273
4837,728.585
4838,735.19
4839,742.645
4840,747.725
4841,747.698
4842,561.69
4843,556.059
4844,479.532
4845,462.868
4846,406.451
4847,404.915
4848,394.423
4849,392.892
4850,391.385
4851,389.327
4852,404.249
4853,401.637
4854,442.846
4855,507.603
4856,514.969
4857,575.287
4858,581.341
4859,584.205
4860,571.613
4861,572.645
4862,573.729
4863,527.202
4864,527.024
4865,506.217
4866,479.719
4867,481.022
4868,422.09
4869,426.255
4870,409.361
4871,408.247
4872,402.801
4873,395.53
4874,394.971
4875,394.387
4876,410.049
4877,409.849
4878,453.575
4879,449.52
4880,492.318
4881,490.836
4882,494.519
4883,498.358
4884,503.563
4885,499.938
4886,498.846
4887,500.203
4888,488.927
4889,462.406
4890,436.256
4891,431.603
4892,419.909
4893,423.102
4894,406.589
4895,406.556
4896,399.967
4897,407.077
4898,404.697
4899,402.25
4900,465.698
4901,463.7
4902,599.571
4903,668.632
4904,692.234
4905,713.244
4906,722.132
4907,727.064
4908,710.789
4909,729.882
4910,733.372
4911,736.666
4912,743.551
4913,744.631
4914,567.082
4915,565.333
4916,486.843
4917,468.859
4918,413.428
4919,413.881
4920,406.609
4921,406.239
4922,405.478
4923,403.34
4924,468.817
4925,470.376
4926,607.937
4927,677.803
4928,699.819
4929,720.716
4930,733.154
4931,743.71
4932,731.419
4933,754.514
4934,760.518
4935,767.828
4936,782.146
4937,791.283
4938,576.184
4939,567.506
4940,485.989
4941,468.298
4942,412.97
4943,412.508
4944,405.813
4945,406.887
4946,407.445
4947,406.32
4948,471.355
4949,473.746
4950,611.41
4951,682.122
4952,705.955
4953,729.001
4954,742.469
4955,752.68
4956,740.177
4957,766.522
4958,777.224
4959,784.464
4960,792.144
4961,793.79
4962,570.602
4963,562.196
4964,485.349
4965,470.083
4966,414.596
4967,414.308
4968,408.963
4969,407.532
4970,405.445
4971,405.417
4972,470.15
4973,472.778
4974,610.942
4975,683.589
4976,707.967
4977,731.716
4978,743.888
4979,752.008
4980,737.547
4981,760.144
4982,768.856
4983,776.666
4984,785.139
4985,786.928
4986,568.808
4987,565.04
4988,489.956
4989,475.313
4990,419.886
4991,419.729
4992,412.975
4993,411.593
4994,411.137
4995,410.911
4996,478.116
4997,484.944
4998,624.986
4999,700.642
5000,731.275
5001,757.623
5002,770.877
5003,781.282
5004,766.355
5005,785.207
5006,785.163
5007,787.508
5008,795.348
5009,791.015
5010,564.155
5011,560.278
5012,487.564
5013,474.581
5014,420.38
5015,419.834
5016,413.591
5017,412.709
5018,412.581
5019,411.256
5020,426.26
5021,427.536
5022,470.782
5023,535.505
5024,543.867
5025,612.861
5026,626.349
5027,638.416
5028,627.756
5029,624.931
5030,625.056
5031,551.751
5032,555.125
5033,530.323
5034,495.653
5035,491.269
5036,430.141
5037,433.196
5038,414.711
5039,415.125
5040,409.786
5041,400.754
5042,400.759
5043,400.612
5044,415.056
5045,412.961
5046,455.989
5047,451.243
5048,492.414
5049,492.83
5050,503.291
5051,507.833
5052,507.379
5053,501.965
5054,501.361
5055,503.264
5056,496.953
5057,472.92
5058,446.647
5059,444.547
5060,434.651
5061,436.935
5062,416.205
5063,414.224
5064,407.062
5065,413.928
5066,413.737
5067,413.698
5068,478.451
5069,477.417
5070,614.176
5071,686.145
5072,711.73
5073,737.516
5074,754.708
5075,764.694
5076,752.222
5077,764.468
5078,758.399
5079,769.352
5080,782.634
5081,787.331
5082,572.915
5083,563.906
5084,484.077
5085,467.461
5086,412.001
5087,411.324
5088,403.352
5089,401.155
5090,398.127
5091,390.581
5092,450.089
5093,449.584
5094,583.961
5095,653.137
5096,678.884
5097,704.326
5098,719.115
5099,728.073
5100,715.447
5101,737.702
5102,740.615
5103,745.223
5104,752.58
5105,754.253
5106,562.79
5107,554.856
5108,475.839
5109,459.803
5110,404.673
5111,400.408
5112,390.503
5113,385.01
5114,379.831
5115,375.966
5116,436.955
5117,433.527
5118,568.908
5119,638.1
5120,662.432
5121,692.431
5122,706.459
5123,708.855
5124,689.728
5125,709.515
5126,713.904
5127,717.721
5128,722.152
5129,723.957
5130,545.087
5131,537.158
5132,457.439
5133,440.148
5134,382.174
5135,378.212
5136,368.519
5137,367.687
5138,366.215
5139,363.953
5140,427.732
5141,429.911
5142,569.954
5143,643.663
5144,670.801
5145,698.468
5146,712.224
5147,719.666
5148,704.321
5149,722.744
5150,724.537
5151,729.804
5152,735.352
5153,738.172
5154,553.546
5155,549.266
5156,475.011
5157,462.287
5158,404.145
5159,396.354
5160,385.58
5161,385.902
5162,385.198
5163,385.093
5164,450.202
5165,451.544
5166,588.951
5167,661.706
5168,688.417
5169,713.677
5170,724.572
5171,730.01
5172,711.81
5173,730.508
5174,738.811
5175,750.283
5176,758.163
5177,761.91
5178,558.803
5179,553.171
5180,477.721
5181,462.333
5182,407.286
5183,406.576
5184,400.269
5185,395.523
5186,392.582
5187,392.971
5188,407.56
5189,406.999
5190,450.215
5191,513.78
5192,519.952
5193,581.325
5194,586.797
5195,582.97
5196,562.482
5197,560.122
5198,562.245
5199,515.109
5200,514.683
5201,494.197
5202,464.955
5203,463.334
5204,404.668
5205,409.554
5206,393.474
5207,392.662
5208,384.197
5209,373.513
5210,373.185
5211,373.734
5212,389.486
5213,388.988
5214,432.728
5215,429.839
5216,474.817
5217,477.333
5218,487.074
5219,493.165
5220,495.842
5221,493.121
5222,494.045
5223,493.856
5224,482.369
5225,458.852
5226,433.295
5227,427.66
5228,413.921
5229,415.435
5230,397.115
5231,392.689
5232,384.878
5233,392.83
5234,392.385
5235,391.331
5236,456.59
5237,457.74
5238,594.462
5239,663.368
5240,684.404
5241,704.165
5242,714.209
5243,717.377
5244,703.13
5245,724.684
5246,729.632
5247,735.433
5248,742.878
5249,747.271
5250,567.167
5251,560.972
5252,482.527
5253,460.44
5254,403.697
5255,399.775
5256,390.832
5257,388.565
5258,387.663
5259,387.44
5260,452.595
5261,451.94
5262,590.022
5263,661.012
5264,684.448
5265,706.228
5266,715.743
5267,721.492
5268,706.687
5269,727.838
5270,733.398
5271,735.71
5272,742.687
5273,739.045
5274,552.305
5275,547.532
5276,473.675
5277,455.196
5278,399.445
5279,396.77
5280,389.483
5281,388.401
5282,388.139
5283,388.468
5284,453.712
5285,454.346
5286,589.513
5287,658.783
5288,682.541
5289,705.602
5290,715.845
5291,720.933
5292,706.22
5293,725.619
5294,732.722
5295,744.732
5296,755.189
5297,758.574
5298,564.814
5299,559.55
5300,485.359
5301,468.176
5302,413.024
5303,412.39
5304,403.838
5305,401.848
5306,400.25
5307,396.803
5308,457.346
5309,458.094
5310,597.479
5311,669.839
5312,691.9
5313,713.602
5314,722.899
5315,728.401
5316,715.838
5317,743.031
5318,751.079
5319,754.136
5320,759.711
5321,761.091
5322,559.206
5323,553.393
5324,480.066
5325,463.742
5326,407.352
5327,401.015
5328,385.668
5329,382.318
5330,381.184
5331,380.107
5332,445.19
5333,444.891
5334,584.629
5335,655.581
5336,681.309
5337,705.468
5338,719.427
5339,725.938
5340,709.781
5341,734.056
5342,743.306
5343,749.989
5344,758.779
5345,762.054
5346,563.386
5347,556.254
5348,480.933
5349,461.833
5350,407.41
5351,408.741
5352,402.432
5353,400.656
5354,397.404
5355,392.959
5356,406.531
5357,405.508
5358,451.576
5359,512.474
5360,518.415
5361,580.815
5362,591.346
5363,598.019
5364,588.872
5365,586.089
5366,585.399
5367,537.107
5368,541.094
5369,522.209
5370,491.671
5371,486.397
5372,427.435
5373,428.089
5374,410.195
5375,408.081
5376,400.194
5377,387.716
5378,384.113
5379,384.107
5380,398.571
5381,396.545
5382,442.141
5383,435.387
5384,477.013
5385,475.552
5386,482.582
5387,487.561
5388,494.636
5389,495.608
5390,497.622
5391,496.621
5392,483.009
5393,458.194
5394,433.491
5395,429.057
5396,421.091
5397,422.514
5398,404.736
5399,403.911
5400,396.637
5401,403.408
5402,401.975
5403,399.796
5404,463.05
5405,461.506
5406,599.381
5407,666.853
5408,693.311
5409,718.727
5410,729.225
5411,732.113
5412,717.026
5413,740.248
5414,747.719
5415,755.65
5416,763.499
5417,768.498
5418,570.869
5419,566.071
5420,491.431
5421,471.461
5422,414.909
5423,414.921
5424,409.682
5425,409.004
5426,407.401
5427,405.434
5428,470.477
5429,471.266
5430,610.855
5431,679.761
5432,704.363
5433,728.044
5434,743.95
5435,757.778
5436,744.574
5437,767.058
5438,767.403
5439,759.683
5440,756.758
5441,755.166
5442,562.221
5443,558.202
5444,484.226
5445,466.117
5446,412.188
5447,410.082
5448,400.542
5449,400.075
5450,397.987
5451,396.367
5452,461.257
5453,463.573
5454,602.734
5455,673.573
5456,701.25
5457,727.187
5458,745.148
5459,757.834
5460,741.87
5461,760.469
5462,767.086
5463,769.657
5464,768.71
5465,764.759
5466,563.39
5467,560.195
5468,486.094
5469,467.395
5470,411.303
5471,410.798
5472,404.159
5473,408.1
5474,413.665
5475,412.564
5476,476.55
5477,478.857
5478,618.629
5479,688.835
5480,719.264
5481,749.887
5482,760.05
5483,768.823
5484,760.788
5485,785.896
5486,789.331
5487,793.571
5488,800.799
5489,800.897
5490,573.231
5491,567.379
5492,491.825
5493,474.359
5494,420.452
5495,420.213
5496,414.696
5497,412.945
5498,410.652
5499,410.45
5500,476.258
5501,482.005
5502,623.631
5503,694.424
5504,719.374
5505,743.752
5506,756.314
5507,764.699
5508,753.808
5509,776.863
5510,779.077
5511,782.217
5512,788.523
5513,791.325
5514,570.744
5515,562.996
5516,488.773
5517,471.793
5518,416.014
5519,415.687
5520,407.92
5521,404.497
5522,402.089
5523,400.51
5524,415.101
5525,410.241
5526,453.238
5527,516.715
5528,524.674
5529,593.838
5530,605.743
5531,607.46
5532,591.072
5533,588.702
5534,589.92
5535,537.665
5536,541.834
5537,521.366
5538,491.622
5539,488.706
5540,429.209
5541,428.066
5542,412.564
5543,412.689
5544,404.994
5545,394.802
5546,393.569
5547,393.409
5548,407.073
5549,401.648
5550,447.772
5551,440.394
5552,484.995
5553,489.132
5554,496.54
5555,502.723
5556,505.277
5557,501.985
5558,499.718
5559,493.893
5560,484.102
5561,462.139
5562,438.319
5563,434.571
5564,425.86
5565,428.55
5566,411.018
5567,409.569
5568,402.713
5569,410.225
5570,408.394
5571,406.217
5572,470.897
5573,469.936
5574,606.914
5575,672.586
5576,696.078
5577,721.168
5578,728.965
5579,732.018
5580,717.761
5581,738.582
5582,742.872
5583,748.535
5584,757.802
5585,761.678
5586,569.21
5587,561.522
5588,487.058
5589,466.026
5590,411.764
5591,411.001
5592,403.355
5593,402.976
5594,402.216
5595,401.975
5596,469.293
5597,469.767
5598,608.761
5599,677.543
5600,702.522
5601,722.818
5602,732.439
5603,739.983
5604,729
5605,749.681
5606,753.065
5607,760.063
5608,772.236
5609,777.816
5610,568.309
5611,561.655
5612,490.025
5613,469.867
5614,414.659
5615,412.475
5616,405.356
5617,405.057
5618,405.33
5619,403.692
5620,468.301
5621,470.765
5622,611.115
5623,681.59
5624,706.192
5625,730.803
5626,747.319
5627,756.591
5628,743.473
5629,770.293
5630,777.559
5631,781.167
5632,784.504
5633,778.748
5634,559.517
5635,552.868
5636,482.611
5637,461.896
5638,406.339
5639,405.983
5640,399.111
5641,398.037
5642,397.204
5643,392.726
5644,454.806
5645,456.975
5646,596.953
5647,667.182
5648,693.197
5649,719.997
5650,734.678
5651,748.705
5652,737.552
5653,760.83
5654,766.135
5655,771.572
5656,783.693
5657,785.68
5658,570.138
5659,565.315
5660,494.988
5661,476.232
5662,420.384
5663,417.327
5664,408.851
5665,406.624
5666,404.431
5667,402.13
5668,468.105
5669,470.724
5670,609.386
5671,678.034
5672,702.814
5673,726.698
5674,741.065
5675,753.466
5676,741.434
5677,765.362
5678,773.952
5679,778.56
5680,784.485
5681,782.345
5682,561.693
5683,556.022
5684,485.507
5685,464.144
5686,408.864
5687,406.377
5688,397.718
5689,393.968
5690,391.084
5691,386.459
5692,398.88
5693,397.793
5694,443.935
5695,506.946
5696,515.123
5697,584.181
5698,597.919
5699,604.666
5700,583.938
5701,574.529
5702,583.062
5703,541.602
5704,545.757
5705,525.233
5706,496.356
5707,493.74
5708,437.512
5709,435.826
5710,418.353
5711,416.674
5712,410.119
5713,400.432
5714,398.543
5715,397.582
5716,413.846
5717,413.433
5718,458.651
5719,451.989
5720,496.721
5721,498.464
5722,504.789
5723,507.764
5724,507.996
5725,505.088
5726,504.605
5727,501.877
5728,488.043
5729,464.356
5730,437.103
5731,430.024
5732,420.581
5733,416.95
5734,396.716
5735,388.205
5736,374.629
5737,380.596
5738,379.988
5739,381.907
5740,446.616
5741,445.343
5742,583.537
5743,651.817
5744,677.561
5745,701.456
5746,714.17
5747,719.802
5748,706.714
5749,727.224
5750,731.405
5751,735.998
5752,741.572
5753,744.021
5754,564.346
5755,558.85
5756,485.952
5757,465.955
5758,409.308
5759,406.955
5760,397.82
5761,393.594
5762,391.617
5763,387.479
5764,448.921
5765,445.943
5766,582.374
5767,647.562
5768,668.408
5769,692.413
5770,703.085
5771,706.828
5772,688.198
5773,704.189
5774,704.669
5775,709.336
5776,715.661
5777,717.903
5778,541.181
5779,535.282
5780,460.745
5781,436.318
5782,376.315
5783,370.404
5784,358.775
5785,355.263
5786,352.108
5787,349.399
5788,412.357
5789,413.597
5790,557.69
5791,630.13
5792,654.286
5793,677.973
5794,691.36
5795,702.17
5796,688.448
5797,710.072
5798,715.617
5799,720.728
5800,726.431
5801,725.433
5802,544.89
5803,534.608
5804,457.146
5805,434.722
5806,377.906
5807,374.829
5808,361.586
5809,354.713
5810,350.552
5811,347.675
5812,410.934
5813,412.752
5814,554.281
5815,625.106
5816,654.47
5817,686.995
5818,706.069
5819,717.783
5820,702.349
5821,718.782
5822,720.111
5823,720.798
5824,724.766
5825,727.108
5826,547.842
5827,538.846
5828,460.261
5829,435.756
5830,378.802
5831,377.938
5832,372.374
5833,374.713
5834,378.466
5835,381.437
5836,451.441
5837,457.812
5838,604.093
5839,680.923
5840,702.729
5841,720.94
5842,726.771
5843,733.101
5844,724.496
5845,747.633
5846,754.757
5847,764.001
5848,773.03
5849,776.039
5850,567.004
5851,559.835
5852,484.587
5853,463.843
5854,408.859
5855,408.845
5856,402.086
5857,402.33
5858,403.477
5859,403.799
5860,419.91
5861,418.433
5862,462.54
5863,521.54
5864,520.06
5865,580.734
5866,585.976
5867,588.861
5868,578.814
5869,576.519
5870,579.007
5871,532.154
5872,533.117
5873,511.52
5874,481.788
5875,481.028
5876,422.445
5877,418.111
5878,398.458
5879,397.408
5880,390.334
5881,380.245
5882,378.417
5883,377.283
5884,393.054
5885,393.806
5886,441.141
5887,436.893
5888,474.675
5889,472.441
5890,479.493
5891,482.404
5892,482.791
5893,480.572
5894,483.357
5895,483.89
5896,471.183
5897,445.617
5898,418.829
5899,416.036
5900,406.57
5901,403.95
5902,384.435
5903,381.691
5904,373.975
5905,372.207
5906,370.205
5907,370.093
5908,388.377
5909,390.984
5910,437.833
5911,435.069
5912,477.592
5913,478.467
5914,485.606
5915,489.321
5916,493.978
5917,493.018
5918,494.247
5919,494.465
5920,481.242
5921,456.385
5922,429.683
5923,428.314
5924,420.859
5925,419.849
5926,401.791
5927,401.367
5928,394.751
5929,403.075
5930,401.273
5931,399.92
5932,467.826
5933,469.042
5934,607.999
5935,677.496
5936,696.886
5937,717.124
5938,722.809
5939,725.824
5940,707.652
5941,724.938
5942,726.362
5943,726.504
5944,731.706
5945,734.515
5946,562.416
5947,560.543
5948,486.738
5949,467.388
5950,411.41
5951,410.183
5952,402.212
5953,400.908
5954,400.646
5955,398.905
5956,463.503
5957,464.596
5958,606.135
5959,679.4
5960,699.46
5961,719.215
5962,724.153
5963,729.401
5964,715.722
5965,734.879
5966,737.944
5967,739.371
5968,742.474
5969,743.87
5970,558.871
5971,557.155
5972,482.489
5973,460.361
5974,404.097
5975,401.908
5976,394.432
5977,391.804
5978,389.321
5979,385.132
5980,448.652
5981,449.547
5982,591.113
5983,665.816
5984,689.663
5985,715.507
5986,725.094
5987,727.466
5988,708.614
5989,727.806
5990,732.489
5991,735.676
5992,742.728
5993,744.975
5994,557.248
5995,555.228
5996,479.399
5997,459.12
5998,400.755
5999,400.232
6000,393.436
6001,389.323
6002,384.786
6003,382.184
6004,448.823
6005,451.598
6006,592.852
6007,664.677
6008,685.558
6009,707.015
6010,714.138
6011,720.009
6012,704.349
6013,722.906
6014,726.302
6015,731.559
6016,740.505
6017,744.804
6018,556.804
6019,553.231
6020,477.725
6021,455.32
6022,396.38
6023,394.173
6024,385.682
6025,383.902
6026,381.845
6027,380.18
6028,395.794
6029,394.995
6030,441.037
6031,505.748
6032,511.013
6033,576.023
6034,587.308
6035,593.841
6036,581.714
6037,580.741
6038,581.431
6039,535.096
6040,537.324
6041,513.274
6042,481.719
6043,480.965
6044,422.621
6045,421.424
6046,402.269
6047,400.318
6048,391.878
6049,381.405
6050,380.84
6051,380.714
6052,394.073
6053,391.898
6054,439.206
6055,433.135
6056,472.989
6057,478.002
6058,489.712
6059,494.189
6060,494.262
6061,490.187
6062,489.802
6063,489.782
6064,475.914
6065,448.379
6066,422.35
6067,422.417
6068,412.681
6069,411.425
6070,395.083
6071,397.288
6072,393.949
6073,398.366
6074,397.429
6075,397.098
6076,462.599
6077,463.818
6078,603.536
6079,675.411
6080,694.928
6081,713.834
6082,722.318
6083,725.994
6084,710.856
6085,732.369
6086,739.362
6087,739.486
6088,738.891
6089,742.586
6090,563.913
6091,563.453
6092,488.013
6093,462.787
6094,404.436
6095,400.531
6096,387.916
6097,386.226
6098,385.43
6099,383.061
6100,449.737
6101,451.654
6102,590.837
6103,657.932
6104,676.601
6105,696.309
6106,703.328
6107,707.837
6108,689.564
6109,706.561
6110,708.303
6111,710.188
6112,714.961
6113,717.061
6114,537.4
6115,527.002
6116,448.752
6117,425.128
6118,365.7
6119,361.705
6120,352.642
6121,349.424
6122,344.958
6123,343.529
6124,409.353
6125,410.759
6126,551.025
6127,620.787
6128,642.638
6129,666.85
6130,678.036
6131,685.336
6132,671.174
6133,690.186
6134,688.717
6135,693.471
6136,698.171
6137,695.53
6138,517.361
6139,515.317
6140,434.57
6141,410.493
6142,354.969
6143,353.889
6144,345.462
6145,342.999
6146,340.962
6147,338.2
6148,402.267
6149,404.475
6150,546.175
6151,620.136
6152,646.875
6153,676.157
6154,694.269
6155,704.642
6156,690.63
6157,712.67
6158,717.678
6159,721.72
6160,726.455
6161,727.757
6162,551.201
6163,548.126
6164,467.235
6165,442.158
6166,384.208
6167,384.593
6168,379.032
6169,378.795
6170,376.472
6171,370.676
6172,433.864
6173,434.532
6174,575.404
6175,649.014
6176,675.295
6177,702.392
6178,715.39
6179,724.205
6180,709.565
6181,734.044
6182,740.954
6183,744.443
6184,751.977
6185,752.018
6186,557.902
6187,557.155
6188,478.796
6189,458.035
6190,399.716
6191,394.848
6192,384.108
6193,380.699
6194,379.291
6195,379.947
6196,398.867
6197,399.497
6198,443.246
6199,506.451
6200,513.035
6201,572.102
6202,573.566
6203,574.959
6204,557.02
6205,551.609
6206,552.854
6207,506.225
6208,511.155
6209,494.398
6210,466.807
6211,469.944
6212,410.019
6213,409.14
6214,391.017
6215,387.319
6216,378.133
6217,367.994
6218,366.711
6219,364.233
6220,376.943
6221,376.174
6222,421.17
6223,415.416
6224,453.658
6225,451.323
6226,458.562
6227,463.275
6228,468.566
6229,473.075
6230,479.131
6231,482.641
6232,476.338
6233,456.803
6234,430.581
6235,429.044
6236,415.217
6237,411.289
6238,392.402
6239,393.155
6240,387.29
6241,393.66
6242,389.732
6243,387.051
6244,452.198
6245,452.227
6246,588.831
6247,657.783
6248,677.986
6249,698.024
6250,704.42
6251,707.543
6252,689.343
6253,709.637
6254,712.174
6255,712.271
6256,716.795
6257,718.435
6258,553.372
6259,549.969
6260,466.291
6261,446.037
6262,392.114
6263,392.443
6264,381.424
6265,376.531
6266,375.754
6267,373.483
6268,440.488
6269,442.101
6270,581.954
6271,652.748
6272,673.424
6273,698.876
6274,712.07
6275,718.425
6276,699.91
6277,715.964
6278,717.431
6279,718.931
6280,724.321
6281,725.303
6282,553.521
6283,553.144
6284,469.88
6285,445.907
6286,390.537
6287,390.011
6288,383.792
6289,379.979
6290,374.492
6291,372.28
6292,436.739
6293,437.719
6294,579.367
6295,650.962
6296,676.599
6297,705.272
6298,718.596
6299,726.146
6300,712.703
6301,735.44
6302,741.984
6303,748.947
6304,755.618
6305,757.427
6306,565.192
6307,564.862
6308,486.28
6309,465.656
6310,410.378
6311,409.713
6312,402.327
6313,400.782
6314,397.605
6315,394.212
6316,457.779
6317,459.251
6318,601.62
6319,673.618
6320,692.298
6321,711.84
6322,718.753
6323,723.351
6324,707.649
6325,730.944
6326,739.874
6327,745.36
6328,755.036
6329,759.958
6330,562.278
6331,560.073
6332,480.813
6333,459.229
6334,401.83
6335,395.951
6336,384.503
6337,381.404
6338,380.215
6339,377.217
6340,443.147
6341,449.154
6342,594.273
6343,666.241
6344,688.302
6345,712.743
6346,721.224
6347,727.283
6348,711.364
6349,730.499
6350,730.345
6351,735.259
6352,742.613
6353,740.782
6354,555.483
6355,554.27
6356,476.297
6357,451.435
6358,390.771
6359,386.896
6360,379.994
6361,379.12
6362,378.033
6363,377.665
6364,393.376
6365,393.272
6366,438.828
6367,500.354
6368,501.487
6369,562.145
6370,568.624
6371,570.652
6372,557.241
6373,555.275
6374,556.006
6375,511.28
6376,517.615
6377,498.465
6378,468.884
6379,471.1
6380,411.942
6381,410.539
6382,390.966
6383,387.724
6384,380.361
6385,370.349
6386,364.927
6387,362.428
6388,378.264
6389,377.997
6390,424.386
6391,418.329
6392,456.585
6393,464.311
6394,473.324
6395,477.943
6396,482.148
6397,481.261
6398,482.726
6399,484.008
6400,470.989
6401,444.293
6402,417.751
6403,421.114
6404,405.524
6405,402.532
6406,384.396
6407,385.034
6408,377.235
6409,382.419
6410,381.847
6411,381.715
6412,447.279
6413,447.207
6414,584.232
6415,657.815
6416,677.85
6417,698.09
6418,703.569
6419,705.781
6420,687.408
6421,705.121
6422,707.668
6423,710.127
6424,713.498
6425,712.738
6426,542.999
6427,540.439
6428,458.085
6429,434.659
6430,375.804
6431,373.184
6432,366.385
6433,362.531
6434,356.696
6435,354.682
6436,421.16
6437,422.789
6438,562.924
6439,635.944
6440,652.195
6441,671.598
6442,681.723
6443,689.555
6444,676.911
6445,697.777
6446,699.627
6447,700.83
6448,707.834
6449,713.863
6450,544.415
6451,543.573
6452,461.591
6453,438.873
6454,381.787
6455,379.39
6456,374.432
6457,374.96
6458,372.936
6459,372.446
6460,437.906
6461,442.417
6462,584.929
6463,657.032
6464,674.965
6465,697.071
6466,707.249
6467,714.889
6468,700.534
6469,722.265
6470,726.415
6471,729.646
6472,732.751
6473,733.525
6474,558.018
6475,562.006
6476,482.33
6477,461.079
6478,405.368
6479,403.044
6480,393.727
6481,388.037
6482,385.073
6483,383.823
6484,448.321
6485,449.522
6486,589.39
6487,662.211
6488,680.191
6489,701.282
6490,712.001
6491,720.85
6492,704.773
6493,722.714
6494,726.084
6495,730.248
6496,736.352
6497,737.915
6498,555.436
6499,556.437
6500,475.516
6501,450.593
6502,391.12
6503,388.909
6504,381.906
6505,381.699
6506,379.146
6507,375.353
6508,441.195
6509,443.558
6510,585.165
6511,659.65
6512,677.919
6513,698.488
6514,706.657
6515,713.725
6516,700.829
6517,723.243
6518,726.554
6519,729.07
6520,735.894
6521,738.464
6522,554.83
6523,556.007
6524,473.934
6525,450.198
6526,392.566
6527,390.38
6528,382.472
6529,382.08
6530,383.266
6531,383.601
6532,396.482
6533,394.104
6534,438.64
6535,499.438
6536,500.147
6537,570.533
6538,582.704
6539,588.191
6540,574.565
6541,568.347
6542,563.605
6543,514.849
6544,516.62
6545,496.092
6546,464.735
6547,466.995
6548,402.757
6549,401.545
6550,384.836
6551,385.372
6552,378.635
6553,368.909
6554,366.816
6555,364.926
6556,379.694
6557,376.389
6558,416.948
6559,410.543
6560,445.936
6561,448.247
6562,459.077
6563,465.531
6564,470.811
6565,471.764
6566,474.608
6567,476.042
6568,462.464
6569,433.629
6570,404.338
6571,406.184
6572,391.831
6573,390.385
6574,372.994
6575,371.653
6576,363.525
6577,369.261
6578,367.797
6579,366.199
6580,431.004
6581,433.206
6582,573.489
6583,644.859
6584,660.279
6585,683.098
6586,692.778
6587,695.513
6588,679.877
6589,698.279
6590,694.107
6591,685.563
6592,684.585
6593,678.736
6594,502.111
6595,498.855
6596,414.993
6597,392.861
6598,336.656
6599,335.457
6600,327.344
6601,326.654
6602,324.979
6603,321.332
6604,385.372
6605,385.59
6606,524.145
6607,597.338
6608,617.666
6609,642.782
6610,658.181
6611,668.721
6612,654.808
6613,674.188
6614,676.312
6615,679.894
6616,686.648
6617,687.932
6618,515.273
6619,514.285
6620,432.091
6621,410.331
6622,353.316
6623,351.953
6624,343.126
6625,339.977
6626,337.616
6627,335.212
6628,396.636
6629,396.707
6630,538.099
6631,611.642
6632,628.767
6633,649.841
6634,662.502
6635,675.871
6636,664.013
6637,680.12
6638,678.979
6639,679.885
6640,681.968
6641,676.753
6642,505.86
6643,506.125
6644,424.351
6645,401.409
6646,343.885
6647,340.997
6648,327.612
6649,319.76
6650,317.438
6651,316.751
6652,381.735
6653,382.439
6654,521.337
6655,593.549
6656,609.278
6657,626.948
6658,632.534
6659,638.474
6660,623.964
6661,647.301
6662,647.822
6663,648.441
6664,653.948
6665,654.645
6666,485.327
6667,484.521
6668,397.508
6669,378.004
6670,323.204
6671,323.349
6672,318.266
6673,318.054
6674,316.992
6675,317.763
6676,382.674
6677,383.863
6678,521.611
6679,593.833
6680,609.189
6681,626.718
6682,632.178
6683,640.388
6684,629.792
6685,653.063
6686,659.5
6687,663.402
6688,668.089
6689,670.788
6690,505.292
6691,510.269
6692,426.876
6693,404.73
6694,349.247
6695,348.361
6696,340.449
6697,338.092
6698,332.983
6699,326.93
6700,338.392
6701,334.925
6702,380.16
6703,444.569
6704,444.278
6705,502.65
6706,509.211
6707,524.096
6708,516.149
6709,510.445
6710,512.083
6711,469.671
6712,473.352
6713,448.947
6714,415.781
6715,420.32
6716,352.21
6717,348.85
6718,329.459
6719,326.934
6720,318.721
6721,310.126
6722,309.982
6723,309.853
6724,325.571
6725,325.315
6726,371.598
6727,370.137
6728,406.809
6729,408.282
6730,422.076
6731,433.377
6732,442.162
6733,444.939
6734,448.665
6735,450.252
6736,437.845
6737,410.969
6738,383.157
6739,388.673
6740,371.429
6741,367.456
6742,347.286
6743,344.702
6744,337.305
6745,335.941
6746,334.458
6747,332.867
6748,346.921
6749,344.62
6750,389.108
6751,386.525
6752,424.77
6753,428.515
6754,444.667
6755,460.056
6756,469.617
6757,470.932
6758,472.61
6759,472.201
6760,458.481
6761,431.925
6762,403.434
6763,407.494
6764,389.912
6765,386.842
6766,369.124
6767,367.572
6768,360.03
6769,361.031
6770,346.981
6771,335.043
6772,393.005
6773,386.86
6774,522.302
6775,591.994
6776,606.263
6777,622.149
6778,625.938
6779,627.194
6780,607.974
6781,626.441
6782,629.701
6783,632.496
6784,639.732
6785,639.19
6786,477.26
6787,481.249
6788,398.941
6789,379.685
6790,325.091
6791,324.911
6792,316.261
6793,315.856
6794,315.989
6795,317.503
6796,381.257
6797,382.318
6798,520.008
6799,591.722
6800,606.549
6801,624.374
6802,629.453
6803,632.509
6804,613.625
6805,632.435
6806,638.034
6807,642.296
6808,649.161
6809,652.435
6810,488.526
6811,492.703
6812,408.481
6813,386.252
6814,328.205
6815,326.173
6816,318.863
6817,318.196
6818,317.939
6819,317.685
6820,383.013
6821,383.963
6822,522.712
6823,595.214
6824,611.117
6825,630.555
6826,644.526
6827,657.884
6828,649.928
6829,676.425
6830,683.324
6831,686.941
6832,699.727
6833,704.1
6834,524.423
6835,524.153
6836,437.875
6837,415.246
6838,357.357
6839,355.019
6840,347.157
6841,345.436
6842,344.518
6843,345.016
6844,412.64
6845,414.146
6846,553.238
6847,623.357
6848,639.333
6849,659.722
6850,669.475
6851,673.654
6852,652.799
6853,668.586
6854,669.174
6855,665.433
6856,662.442
6857,656.145
6858,481.409
6859,489.533
6860,417.847
6861,398.383
6862,343.112
6863,341.446
6864,335.502
6865,338.183
6866,340.751
6867,341.001
6868,355.776
6869,354.225
6870,398.003
6871,466.885
6872,463.223
6873,519.684
6874,525.52
6875,527.369
6876,512.286
6877,511.508
6878,515.683
6879,468.938
6880,470.81
6881,454.843
6882,428.853
6883,430.564
6884,357.517
6885,354.104
6886,336.293
6887,335.297
6888,328.481
6889,320.43
6890,320.264
6891,319.472
6892,335.928
6893,337.202
6894,382.22
6895,382.531
6896,415.998
6897,411.446
6898,413.152
6899,413.068
6900,415.414
6901,418.542
6902,421.354
6903,424.839
6904,414.039
6905,390.466
6906,365.116
6907,363.261
6908,341.864
6909,340.517
6910,322.936
6911,321.916
6912,315.568
6913,322.996
6914,322.686
6915,322.629
6916,386.974
6917,387.926
6918,524.956
6919,597.164
6920,606.968
6921,623.339
6922,629.394
6923,642.576
6924,635.152
6925,661.822
6926,670.381
6927,673.809
6928,679.057
6929,681.08
6930,517.464
6931,522.918
6932,440.42
6933,417.985
6934,360.544
6935,358.511
6936,350.391
6937,348.846
6938,347.257
6939,345.526
6940,410.958
6941,411.065
6942,548.248
6943,622.663
6944,636.142
6945,655.612
6946,667.304
6947,678.096
6948,662.823
6949,679.328
6950,681.103
6951,683.738
6952,688.435
6953,686.72
6954,518.244
6955,518.687
6956,435.58
6957,414.546
6958,357.283
6959,355.203
6960,347.529
6961,345.563
6962,343.78
6963,342.059
6964,407.045
6965,407.745
6966,546.128
6967,620.622
6968,635.224
6969,657.452
6970,672.76
6971,685.049
6972,672.418
6973,693.636
6974,694.104
6975,695.145
6976,702.812
6977,703.125
6978,529.535
6979,530.295
6980,447.831
6981,425.95
6982,369.034
6983,367.569
6984,358.942
6985,356.033
6986,353.901
6987,352.275
6988,417.384
6989,419.299
6990,561.437
6991,641.074
6992,656.987
6993,676.413
6994,683.574
6995,687.04
6996,671.715
6997,695.001
6998,701.137
6999,704.424
7000,710.367
7001,713.88
7002,544.526
7003,544.029
7004,461.402
7005,439.595
7006,382.323
7007,380.514
7008,373.314
7009,372.303
7010,369.652
7011,365.676
7012,432.827
7013,436.719
7014,577.506
7015,654.627
7016,670.181
7017,687.594
7018,694.129
7019,699.796
7020,684.28
7021,705.184
7022,709.986
7023,714.606
7024,721.595
7025,723.425
7026,555.525
7027,557.162
7028,470.768
7029,446.002
7030,389.111
7031,387.061
7032,378.27
7033,377.658
7034,375.768
7035,372.631
7036,388.755
7037,391.29
7038,440.612
7039,511.02
7040,509.454
7041,569.156
7042,575.813
7043,579.585
7044,566.845
7045,566.887
7046,570.83
7047,526.62
7048,527.764
7049,505.549
7050,475.998
7051,476.856
7052,408.7
7053,404.332
7054,384.746
7055,383.954
7056,374.721
7057,363.733
7058,363.167
7059,360.907
7060,375.237
7061,375.763
7062,421.015
7063,421.668
7064,456.737
7065,453.285
7066,459.148
7067,465.453
7068,471.164
7069,470.791
7070,471.017
7071,468.857
7072,452.693
7073,424.857
7074,400.006
7075,402.936
7076,386.991
7077,386.871
7078,371.266
7079,370.129
7080,363.206
7081,373.525
7082,374.742
7083,370.389
7084,424.909
7085,412.874
7086,542.151
7087,613.342
7088,626.347
7089,639.96
7090,635.949
7091,632.014
7092,611.463
7093,632.002
7094,636.193
7095,641.635
7096,650.287
7097,647.206
7098,486.31
7099,485.516
7100,400.779
7101,380.845
7102,326.938
7103,327.912
7104,323.899
7105,324.576
7106,323.845
7107,323.73
7108,389.231
7109,389.842
7110,526.252
7111,599.929
7112,612.995
7113,628.486
7114,639.285
7115,648.202
7116,629.045
7117,647.257
7118,651.627
7119,652.85
7120,660.798
7121,662.396
7122,498.469
7123,497.196
7124,411.298
7125,386.447
7126,332.801
7127,334.719
7128,328.839
7129,328.559
7130,327.717
7131,326.938
7132,391.027
7133,394.667
7134,533.217
7135,607.749
7136,620.249
7137,636.754
7138,641.777
7139,644.319
7140,623.972
7141,640.489
7142,649.768
7143,658.073
7144,662.467
7145,664.537
7146,500.507
7147,500.378
7148,417.367
7149,395.694
7150,338.711
7151,338.046
7152,331.857
7153,332.281
7154,332.087
7155,331.009
7156,392.308
7157,392.058
7158,530.097
7159,604.794
7160,618.601
7161,632.58
7162,635.769
7163,638.414
7164,622.356
7165,642.791
7166,647.514
7167,664.037
7168,674.66
7169,670.495
7170,506.097
7171,504.579
7172,416.186
7173,392.849
7174,336.127
7175,333.372
7176,325.755
7177,329.527
7178,329.582
7179,326.115
7180,401.973
7181,402.352
7182,535.233
7183,611.278
7184,627.121
7185,642.928
7186,645.278
7187,644.479
7188,624.608
7189,646.729
7190,666.925
7191,673.789
7192,678.063
7193,677.606
7194,504.555
7195,503.347
7196,420.062
7197,398.164
7198,341.244
7199,338.153
7200,330.119
7201,329.508
7202,329.223
7203,329.287
7204,339.71
7205,337.076
7206,381.992
7207,448.174
7208,442.651
7209,501.405
7210,507.564
7211,518.02
7212,512.96
7213,516.503
7214,521.107
7215,479.804
7216,482.285
7217,459.522
7218,429.388
7219,429.929
7220,362.697
7221,360.561
7222,342.25
7223,340.388
7224,333.028
7225,325.058
7226,324.556
7227,324.559
7228,340.473
7229,343.08
7230,396.254
7231,402.418
7232,436.009
7233,431.173
7234,434.686
7235,435.388
7236,437.536
7237,436.083
7238,436.344
7239,436.367
7240,424.138
7241,401.688
7242,382.095
7243,384.814
7244,366.081
7245,363.074
7246,345.069
7247,343.121
7248,336.34
7249,345.665
7250,346.497
7251,344.88
7252,409.88
7253,411.387
7254,549.711
7255,624.931
7256,640.009
7257,657.769
7258,664.276
7259,669.176
7260,654.55
7261,674.971
7262,677.04
7263,678.867
7264,683.444
7265,684.339
7266,527.448
7267,527.134
7268,444.952
7269,425.453
7270,370.712
7271,371.332
7272,365.382
7273,364.871
7274,364.301
7275,363.596
7276,429.256
7277,428.83
7278,566.542
7279,639.972
7280,652.206
7281,669.497
7282,676.202
7283,682.658
7284,667.297
7285,684.762
7286,685.985
7287,686.756
7288,690.279
7289,690.363
7290,530.509
7291,526.117
7292,436.88
7293,410.519
7294,349.051
7295,343.7
7296,332.715
7297,326.252
7298,320.385
7299,319.197
7300,384.441
7301,384.905
7302,523.549
7303,601.78
7304,618.192
7305,640.527
7306,651.642
7307,661.666
7308,647.39
7309,666.642
7310,669.036
7311,667.156
7312,654.239
7313,633.635
7314,475.057
7315,478.549
7316,402.799
7317,390.908
7318,340.799
7319,343.919
7320,339.893
7321,343.763
7322,346.695
7323,347.706
7324,414.033
7325,418.47
7326,556.952
7327,632.103
7328,642.025
7329,661.099
7330,670.046
7331,677.623
7332,659.213
7333,678.098
7334,680.127
7335,682.24
7336,687.026
7337,686.405
7338,528.845
7339,528.227
7340,442.203
7341,418.815
7342,366.18
7343,364.606
7344,358.501
7345,360.455
7346,357.972
7347,353.098
7348,404.367
7349,400.948
7350,538.662
7351,614.271
7352,635.794
7353,664.645
7354,675.087
7355,682.357
7356,664.292
7357,683.204
7358,687.583
7359,688.464
7360,689.004
7361,685.117
7362,521.337
7363,520.666
7364,434.466
7365,415.951
7366,366.269
7367,366.732
7368,361.093
7369,361.646
7370,357.638
7371,352.592
7372,366.298
7373,363.06
7374,403.092
7375,476.577
7376,468.627
7377,526.466
7378,536.362
7379,545.463
7380,524.084
7381,510.597
7382,504.736
7383,459.499
7384,461.469
7385,437.427
7386,408.489
7387,406.278
7388,339.34
7389,338.744
7390,322.819
7391,323.365
7392,317.417
7393,309.35
7394,309.515
7395,309.683
7396,325.855
7397,325.937
7398,372.118
7399,375.64
7400,407.048
7401,406.595
7402,418.475
7403,429.604
7404,437.866
7405,441.204
7406,445.284
7407,447.272
7408,435.385
7409,405.926
7410,378.857
7411,378.232
7412,362.412
7413,362.085
7414,344.775
7415,343.003
7416,335.167
7417,339.991
7418,334.965
7419,331.337
7420,331.993
7421,397.786
7422,397.339
7423,531.839
7424,596.735
7425,618.214
7426,636.73
7427,643.296
7428,651.025
7429,637.395
7430,655.078
7431,655.277
7432,655.246
7433,658.629
7434,662.405
7435,505.973
7436,501.715
7437,417.878
7438,393.946
7439,334.264
7440,329.72
7441,319.297
7442,318.126
7443,317.992
7444,317.689
7445,384.096
7446,384.713
7447,522.18
7448,587.784
7449,608.511
7450,625.75
7451,630.859
7452,635.704
7453,619.172
7454,638.29
7455,640.312
7456,640.41
7457,645.303
7458,648.224
7459,488.183
7460,482.617
7461,400.508
7462,379.568
7463,325.038
7464,326.642
7465,320.907
7466,320.398
7467,319.848
7468,319.66
7469,383.892
7470,383.532
7471,521.747
7472,587.985
7473,608.115
7474,625.84
7475,632.218
7476,637.916
7477,623.382
7478,642.08
7479,644.595
7480,646.381
7481,650.503
7482,649.659
7483,488.63
7484,485.717
7485,406.194
7486,387.875
7487,335.809
7488,337.163
7489,331.314
7490,331.506
7491,331.442
7492,333.475
7493,398.489
7494,400.684
7495,537.518
7496,601.859
7497,619.245
7498,632.572
7499,634.439
7500,634.349
7501,614.647
7502,630.7
7503,630.726
7504,631.603
7505,634.292
7506,639.962
7507,482.794
7508,478.816
7509,397.392
7510,378.276
7511,323.641
7512,323.907
7513,317.949
7514,317.943
7515,317.901
7516,317.936
7517,384.654
7518,385.457
7519,524.015
7520,590.226
7521,610.769
7522,630.255
7523,639.865
7524,643.468
7525,623.595
7526,647.488
7527,648.848
7528,647.541
7529,649.871
7530,650.853
7531,488.359
7532,480.216
7533,397.287
7534,377.864
7535,323.439
7536,323.775
7537,308.914
7538,308.447
7539,311.233
7540,314.585
7541,331.402
7542,334.295
7543,378.571
7544,370.615
7545,407.547
7546,401.989
7547,406.925
7548,407.68
7549,411.954
7550,419.208
7551,427.632
7552,426.7
7553,408.232
7554,392.852
7555,378.665
7556,375.934
7557,360.35
7558,357.865
7559,343.125
7560,346.476
7561,340.858
7562,340.75
7563,340.768
7564,341.813
7565,361.333
7566,365.861
7567,411.674
7568,405.465
7569,449.033
7570,447.059
7571,454.148
7572,458.285
7573,457.327
7574,451.212
7575,454.435
7576,457.169
7577,447.779
7578,427.48
7579,402.413
7580,397.253
7581,378.833
7582,375.585
7583,356.599
7584,354.027
7585,356.696
7586,360.401
7587,359.028
7588,356.672
7589,422.055
7590,421.855
7591,555.49
7592,619.764
7593,643.588
7594,662.106
7595,669.669
7596,671.794
7597,651.325
7598,668.993
7599,668.341
7600,669.009
7601,670.756
7602,674.65
7603,522.678
7604,517.164
7605,428.379
7606,399.328
7607,337.939
7608,333.66
7609,326.218
7610,325.678
7611,325.397
7612,326.033
7613,395.881
7614,410.885
7615,553.806
7616,620.214
7617,641.024
7618,659.714
7619,666.443
7620,668.343
7621,649.022
7622,665.076
7623,664.843
7624,664.965
7625,666.599
7626,671.98
7627,515.609
7628,508.863
7629,426.518
7630,401.929
7631,338.281
7632,329.692
7633,318.018
7634,315.293
7635,313.636
7636,311.916
7637,374.965
7638,384.596
7639,525.741
7640,594.299
7641,625.517
7642,651.18
7643,658.675
7644,665.628
7645,649.235
7646,667.569
7647,669.746
7648,671.863
7649,675.489
7650,676.729
7651,519.467
7652,513.765
7653,435.24
7654,415.295
7655,360.21
7656,357.928
7657,350.045
7658,349.412
7659,348.942
7660,343.593
7661,404.261
7662,409.832
7663,544.111
7664,612.385
7665,636.596
7666,654.815
7667,662.071
7668,668.431
7669,652.716
7670,672.381
7671,676.136
7672,677.715
7673,682.106
7674,685.092
7675,525.939
7676,517.226
7677,437.573
7678,419.267
7679,366.222
7680,367.138
7681,362.22
7682,359.333
7683,357.601
7684,355.486
7685,418.154
7686,416.058
7687,550.603
7688,620.883
7689,631.449
7690,623.193
7691,630.729
7692,636.51
7693,624.564
7694,647.045
7695,649.714
7696,651.163
7697,653.207
7698,653.096
7699,488.522
7700,479.488
7701,396.524
7702,376.756
7703,322.19
7704,322.539
7705,315.99
7706,315.378
7707,315.389
7708,315.912
7709,332.165
7710,332.998
7711,378.204
7712,440.049
7713,443.343
7714,502.46
7715,512.243
7716,521.083
7717,508.115
7718,505.764
7719,505.789
7720,461.596
7721,464.168
7722,446.313
7723,412.573
7724,405.395
7725,339.961
7726,339.018
7727,323.019
7728,323.494
7729,309.237
7730,309
7731,308.65
7732,308.347
7733,323.901
7734,323.433
7735,369.527
7736,365.797
7737,405.637
7738,404.694
7739,416.781
7740,424.502
7741,430.405
7742,432.436
7743,436.117
7744,438.155
7745,426.195
7746,404.594
7747,374.386
7748,366.029
7749,347.149
7750,344.049
7751,325.283
7752,324.359
7753,324.311
7754,320.829
7755,318.22
7756,317.282
7757,382.224
7758,382.817
7759,520.208
7760,588.756
7761,607.192
7762,626.006
7763,640.344
7764,650.163
7765,636.315
7766,657.827
7767,659.859
7768,658.753
7769,661.556
7770,668.015
7771,507.589
7772,500.668
7773,416.596
7774,394.891
7775,335.703
7776,333.499
7777,326.307
7778,324.808
7779,323.792
7780,325.049
7781,391.533
7782,390.131
7783,525.834
7784,593.838
7785,611.761
7786,629.644
7787,637.764
7788,643.842
7789,632.435
7790,658.617
7791,665.991
7792,670.326
7793,672.127
7794,674.122
7795,508.216
7796,502.153
7797,417.977
7798,395.045
7799,338.069
7800,337.011
7801,333.135
7802,337.719
7803,339.105
7804,338.605
7805,403.942
7806,407.252
7807,547.211
7808,617.3
7809,637.274
7810,658.187
7811,669.155
7812,677.025
7813,658.597
7814,673.57
7815,672.368
7816,671.803
7817,672.156
7818,674.472
7819,507.717
7820,502.617
7821,424.026
7822,409.773
7823,358.406
7824,359.996
7825,347.95
7826,351.697
7827,353.571
7828,353.929
7829,369.948
7830,369.951
7831,414.732
7832,409.114
7833,449.133
7834,446.936
7835,450.867
7836,448.656
7837,442.89
7838,435.16
7839,430.674
7840,426.515
7841,410.189
7842,385.996
7843,355.832
7844,348.332
7845,330.762
7846,329.738
7847,318.05
7848,322.782
7849,326.244
7850,331.202
7851,334.893
7852,335.099
7853,401.623
7854,405.97
7855,541.185
7856,607.48
7857,628.858
7858,645.699
7859,645.982
7860,640.386
7861,614.387
7862,628.144
7863,627.145
7864,631.841
7865,639.397
7866,647.468
7867,491.769
7868,487.9
7869,410.441
7870,395.38
7871,344.376
7872,349.303
7873,345.085
7874,344.571
7875,344.211
7876,343.836
7877,358.174
7878,357.717
7879,404.185
7880,467.258
7881,470.05
7882,530.136
7883,535.647
7884,538.287
7885,521.769
7886,516.587
7887,515.532
7888,469.242
7889,469.941
7890,458.092
7891,433.481
7892,430.051
7893,363.062
7894,358.006
7895,341.151
7896,343.363
7897,330.104
7898,323.527
7899,321.416
7900,322.868
7901,337.43
7902,335.256
7903,379.27
7904,375.26
7905,411.718
7906,404.526
7907,406.312
7908,406.384
7909,404.112
7910,400.176
7911,400.242
7912,400.33
7913,388.149
7914,370.246
7915,346.899
7916,343.681
7917,328.681
7918,328.719
7919,313.115
7920,313.924
7921,316.304
7922,316.543
7923,316.785
7924,316.858
7925,382.604
7926,384.117
7927,522.161
7928,590.693
7929,608.499
7930,625.294
7931,631.666
7932,635.247
7933,618.422
7934,640.061
7935,643.481
7936,646.034
7937,652.114
7938,659.425
7939,503.458
7940,499.988
7941,416.977
7942,397.154
7943,342.359
7944,342.592
7945,336.416
7946,336.384
7947,336.335
7948,336.285
7949,403.102
7950,403.286
7951,539.58
7952,607.341
7953,626.363
7954,644.695
7955,650.641
7956,655.179
7957,637.909
7958,656.557
7959,660.941
7960,664.426
7961,668.877
7962,677.142
7963,518.993
7964,514.676
7965,434.595
7966,417.324
7967,363.368
7968,363.721
7969,353.439
7970,347.023
7971,345.202
7972,344.741
7973,404.39
7974,391.014
7975,521.728
7976,590.618
7977,617.078
7978,642.181
7979,649.361
7980,654.101
7981,636.634
7982,654.573
7983,656.568
7984,658.306
7985,662.271
7986,671.293
7987,515.524
7988,511.14
7989,430.517
7990,410.86
7991,348.031
7992,341.539
7993,331.286
7994,330.595
7995,331.012
7996,331.762
7997,399.753
7998,410.74
7999,546.102
8000,616.916
8001,647.138
8002,669.47
8003,676.518
8004,679.528
8005,658.856
8006,674.917
8007,674.902
8008,676.513
8009,679.488
8010,684.496
8011,525.126
8012,519.996
8013,435.119
8014,412.98
8015,353.932
8016,350.481
8017,345.848
8018,348.745
8019,349.28
8020,349.254
8021,412.802
8022,412.396
8023,547.405
8024,612.93
8025,629.052
8026,645.931
8027,649.469
8028,651.167
8029,633.738
8030,653.638
8031,659.825
8032,658.189
8033,654.627
8034,658.036
8035,496.385
8036,491.408
8037,407.885
8038,386.789
8039,333.121
8040,334.25
8041,330.204
8042,331.533
8043,332.303
8044,332.882
8045,345.673
8046,344.814
8047,392.247
8048,457.36
8049,458.475
8050,509.384
8051,505.343
8052,505.721
8053,491.089
8054,488.455
8055,491.104
8056,448.186
8057,451.201
8058,435.818
8059,407.236
8060,403.43
8061,339.219
8062,339.497
8063,326.535
8064,330.196
8065,316.491
8066,320.976
8067,325.452
8068,326.252
8069,340.553
8070,342.55
8071,389.005
8072,380.921
8073,415.426
8074,405.888
8075,405.124
8076,406.433
8077,406.778
8078,408.02
8079,416.5
8080,422.668
8081,412.201
8082,392.576
8083,365.782
8084,359.296
8085,341.934
8086,340.211
8087,323.868
8088,325.073
8089,327.41
8090,327.448
8091,327.462
8092,327.456
8093,391.352
8094,389.977
8095,527.236
8096,599.894
8097,620.086
8098,641.522
8099,647.837
8100,651.812
8101,634.811
8102,652.457
8103,655.448
8104,657.555
8105,661.976
8106,670.623
8107,515.355
8108,512.536
8109,432.268
8110,414.906
8111,361.772
8112,362.392
8113,357.56
8114,360.633
8115,356.522
8116,346.816
8117,408.975
8118,405.767
8119,538.331
8120,602.615
8121,610.741
8122,625.694
8123,629.405
8124,630.062
8125,610.615
8126,628.562
8127,631.537
8128,634.373
8129,640.154
8130,650.406
8131,496.093
8132,494.373
8133,413.7
8134,396.194
8135,345.227
8136,344.408
8137,338.95
8138,339.41
8139,333.205
8140,327.608
8141,387.599
8142,393.829
8143,532.192
8144,609.03
8145,629.654
8146,644.055
8147,652.65
8148,659.616
8149,646.629
8150,665.456
8151,669.04
8152,671.823
8153,673.337
8154,683.453
8155,527.54
8156,520.31
8157,437.063
8158,414.03
8159,357.764
8160,356.491
8161,349.757
8162,348.447
8163,343.11
8164,333.84
8165,391.063
8166,395.636
8167,532.937
8168,607.247
8169,627.377
8170,651.163
8171,657.994
8172,661.088
8173,639.683
8174,658.688
8175,660.881
8176,661.03
8177,664.455
8178,672.655
8179,514.035
8180,510.69
8181,430.435
8182,410.077
8183,354.656
8184,354.126
8185,345.062
8186,338.811
8187,332.907
8188,330.477
8189,399.964
8190,407.228
8191,543.705
8192,617.776
8193,635.108
8194,652.925
8195,656.094
8196,656.257
8197,636.857
8198,653.197
8199,653.166
8200,653.384
8201,656.841
8202,663.023
8203,505.511
8204,501.863
8205,419.105
8206,397.663
8207,343.695
8208,345.985
8209,340.913
8210,342.313
8211,343.667
8212,335.563
8213,348.347
8214,343.81
8215,383.514
8216,453.559
8217,461.217
8218,521.358
8219,527.994
8220,534.315
8221,522.511
8222,521.53
8223,523.171
8224,479.622
8225,483.557
8226,468.349
8227,440.505
8228,434.974
8229,368.564
8230,367.645
8231,350.618
8232,352.038
8233,335.712
8234,327.051
8235,318.396
8236,316.662
8237,330.917
8238,325.066
8239,367.783
8240,366.924
8241,410.453
8242,423.767
8243,439.391
8244,444.273
8245,446.129
8246,441.436
8247,442.342
8248,443.455
8249,430.687
8250,410.731
8251,386.94
8252,375.976
8253,357.172
8254,355.738
8255,336.44
8256,332.892
8257,334.01
8258,330.101
8259,325.501
8260,321.844
8261,382.681
8262,388.614
8263,524.555
8264,593.765
8265,613.089
8266,641.103
8267,660.959
8268,675.745
8269,660.86
8270,678.036
8271,679.017
8272,678.203
8273,680.452
8274,685.252
8275,526.675
8276,522.977
8277,443.966
8278,425.114
8279,364.585
8280,345.587
8281,332.96
8282,342.896
8283,348.683
8284,351.381
8285,417.861
8286,424.33
8287,561.932
8288,631.669
8289,646.905
8290,664.707
8291,669.761
8292,667.478
8293,640.302
8294,647.767
8295,641.001
8296,639.735
8297,643.626
8298,651.878
8299,498.295
8300,495.959
8301,414.638
8302,394.153
8303,338.603
8304,335.497
8305,324.219
8306,320.006
8307,316.167
8308,316.615
8309,382.499
8310,383.827
8311,522.089
8312,594.022
8313,610.541
8314,633.998
8315,647.996
8316,657.398
8317,640.362
8318,654.503
8319,650.846
8320,647.768
8321,653.2
8322,654.302
8323,498.428
8324,503.393
8325,423.462
8326,397.528
8327,340.691
8328,340.52
8329,335.976
8330,338.2
8331,340.632
8332,343.527
8333,411.467
8334,413.931
8335,553.091
8336,623.783
8337,640.442
8338,657.615
8339,659.302
8340,659.833
8341,639.822
8342,654.2
8343,655.38
8344,657.131
8345,661.059
8346,668.452
8347,509.153
8348,504.682
8349,422.632
8350,402.908
8351,349.732
8352,349.976
8353,343.883
8354,342.243
8355,341.07
8356,340.449
8357,405.905
8358,407.086
8359,542.944
8360,601.228
8361,609.138
8362,626.088
8363,628.633
8364,628.377
8365,608.399
8366,624.159
8367,624.214
8368,624.273
8369,628.224
8370,636.623
8371,479.876
8372,477.278
8373,396.75
8374,377.809
8375,325.444
8376,330.428
8377,326.405
8378,328.407
8379,331.447
8380,332.385
8381,348.596
8382,351.368
8383,399.401
8384,466.809
8385,467.503
8386,525.801
8387,530.363
8388,532.51
8389,517.631
8390,514.119
8391,514.702
8392,472.264
8393,478.238
8394,465.16
8395,438.484
8396,433.811
8397,364.844
8398,360.741
8399,342.126
8400,340.298
8401,323.803
8402,322.419
8403,319.032
8404,316.591
8405,333.132
8406,332.733
8407,377.248
8408,374.95
8409,411.231
8410,408.209
8411,414.688
8412,423.115
8413,430.559
8414,436.463
8415,441.961
8416,443.528
8417,432.691
8418,411.598
8419,383.137
8420,371.442
8421,352.21
8422,349.899
8423,332.812
8424,331.431
8425,332.001
8426,329.653
8427,327.7
8428,328.611
8429,394.922
8430,404.287
8431,540.436
8432,611.699
8433,631.482
8434,658.713
8435,677.869
8436,684.837
8437,665.317
8438,682.672
8439,684.081
8440,683.739
8441,683.19
8442,686.766
8443,530.245
8444,526.265
8445,444.521
8446,420.265
8447,356.74
8448,353.104
8449,343.495
8450,338.699
8451,335.73
8452,331.873
8453,396.684
8454,402.815
8455,537.193
8456,607.829
8457,630.816
8458,663.709
8459,677.14
8460,682.56
8461,662.844
8462,675.157
8463,672.736
8464,673.484
8465,677.532
8466,682.62
8467,521.224
8468,513.57
8469,431.421
8470,411.559
8471,356.159
8472,352.979
8473,343.423
8474,342.644
8475,340.971
8476,337.915
8477,401.177
8478,402.229
8479,538.523
8480,610.496
8481,624.956
8482,639.935
8483,639.772
8484,636.602
8485,611.843
8486,625.686
8487,623.469
8488,623.748
8489,627.994
8490,635.728
8491,480.765
8492,478.075
8493,396.859
8494,388.77
8495,344.236
8496,336.369
8497,321.173
8498,318.911
8499,318.644
8500,317.956
8501,382.418
8502,389.304
8503,527.775
8504,601.427
8505,617.026
8506,633.704
8507,639.765
8508,645.046
8509,634.707
8510,660.559
8511,669.624
8512,674.225
8513,678.306
8514,684.78
8515,508.689
8516,495.997
8517,410.601
8518,389.09
8519,334.06
8520,331.492
8521,322.973
8522,320.362
8523,317.612
8524,315.692
8525,378.716
8526,380.614
8527,515.296
8528,585.347
8529,603.8
8530,629.034
8531,647.02
8532,669.619
8533,659.813
8534,677.796
8535,679.621
8536,681.609
8537,681.693
8538,684.843
8539,525.037
8540,515.327
8541,426.502
8542,398.09
8543,338.751
8544,337.362
8545,331.297
8546,326.904
8547,327.162
8548,327.56
8549,341.97
8550,344.572
8551,390.424
8552,463.164
8553,467.661
8554,538.997
8555,550.401
8556,554.407
8557,534.427
8558,520.506
8559,515.071
8560,470.661
8561,472.008
8562,459.648
8563,435.986
8564,431.522
8565,364.825
8566,364.261
8567,349.39
8568,350.925
8569,337.159
8570,337.376
8571,338.717
8572,336.176
8573,346.645
8574,344.868
8575,389.022
8576,385.73
8577,431.403
8578,442.98
8579,449.537
8580,450.918
8581,439.522
8582,424.228
8583,422.195
8584,414.583
8585,399.829
8586,382.775
8587,358.27
8588,353.54
8589,340.312
8590,339.307
8591,320.916
8592,320.345
8593,314.462
8594,314.511
8595,313.548
8596,313.018
8597,327.755
8598,325.841
8599,372.333
8600,371.876
8601,407.67
8602,402.964
8603,405.982
8604,404.547
8605,403.461
8606,400.157
8607,400.624
8608,401.532
8609,389.793
8610,369.445
8611,348.749
8612,345.488
8613,330.635
8614,331.055
8615,316.117
8616,320.807
8617,327.474
8618,329.988
8619,336.446
8620,344.161
8621,412.691
8622,416.066
8623,556.143
8624,628.605
8625,647.378
8626,666.644
8627,671.279
8628,671.864
8629,652.358
8630,671.16
8631,673.126
8632,670.763
8633,668.712
8634,664.543
8635,501.561
8636,490.295
8637,401.554
8638,377.665
8639,322.595
8640,322.584
8641,316.08
8642,317.066
8643,317.641
8644,318.355
8645,384.53
8646,387.815
8647,527.925
8648,605.466
8649,609.279
8650,620.868
8651,626.2
8652,629.371
8653,614.38
8654,634.61
8655,650.523
8656,660.359
8657,664.312
8658,672.202
8659,518.54
8660,510.524
8661,425.164
8662,406.675
8663,352.387
8664,352.127
8665,346.81
8666,341.659
8667,336.721
8668,335.586
8669,395.035
8670,401.065
8671,534.97
8672,610.139
8673,631.833
8674,648.697
8675,655.258
8676,667.385
8677,660.485
8678,682.22
8679,683.699
8680,680.512
8681,676.703
8682,674.259
8683,520.169
8684,520.174
8685,437.203
8686,416.526
8687,360.968
8688,358.709
8689,352.454
8690,354.326
8691,353.007
8692,350.26
8693,412.604
8694,410.672
8695,542.383
8696,610.497
8697,618.44
8698,625.503
8699,628.358
8700,632.125
8701,621.483
8702,645.405
8703,652.983
8704,660.697
8705,667.09
8706,671.666
8707,513.929
8708,509.908
8709,430.815
8710,407.962
8711,346.221
8712,344.85
8713,337.048
8714,329.702
8715,320.587
8716,317.882
8717,332.803
8718,332.009
8719,378.179
8720,444.698
8721,441.938
8722,502.328
8723,508.017
8724,506.187
8725,489.74
8726,486.464
8727,486.729
8728,443.707
8729,447.617
8730,432.358
8731,407.592
8732,404.438
8733,340.151
8734,341.206
8735,325.949
8736,328.717
8737,318.34
8738,326.316
8739,338.444
8740,341.879
8741,359.826
8742,361.913
8743,410.299
8744,413.775
8745,448.154
8746,445.596
8747,451.597
8748,456.921
8749,458.27
8750,445.267
8751,435.651
8752,434.472
8753,418.965
8754,396.209
8755,373.257
8756,369.693
8757,357.156
8758,357.467
8759,338.482
8760,336.525